"acc","accuracy","average_response_time","avg_rt","background","bidi","canvas_backend","compensation","coordinates","correct","correct_display_selecting","correct_welcome","count_A","count_B","count_ISI","count_X","count_break","count_determine_break","count_display_listening","count_display_selecting","count_experiment","count_finished","count_getting_started","count_new_inline_script","count_new_logger","count_new_loop","count_new_sequence","count_plain_block","count_setup_breaks","count_wait_nextitem","count_welcome","datetime","delay_ISI","delay_wait_nextitem","description","disable_garbage_collection","empty_column","experiment_file","experiment_path","flip_order","font_bold","font_family","font_italic","font_size","font_underline","foreground","form_clicks","fullscreen","height","live_row","live_row_plain_block","logfile","opensesame_codename","opensesame_version","play1","play2","play3","repeat_cycle","response","response_break","response_display_selecting","response_finished","response_time","response_time_break","response_time_display_selecting","response_time_finished","response_time_welcome","response_welcome","round_decimals","sound_buf_size","sound_channels","sound_freq","sound_sample_size","start","stimA","stimB","stimX","subject_nr","subject_parity","time_A","time_B","time_ISI","time_X","time_break","time_determine_break","time_display_listening","time_display_selecting","time_experiment","time_finished","time_getting_started","time_new_inline_script","time_new_logger","time_new_loop","time_new_sequence","time_plain_block","time_setup_breaks","time_wait_nextitem","time_welcome","title","to_break","total_correct","total_response_time","total_responses","uniform_coordinates","width"
"undefined","undefined","undefined","undefined","black","no","legacy","0","uniform","undefined","undefined","undefined","0","0","1","0","0","NA","0","0","0","0","0","0","0","0","0","0","NA","0","0","Fri 26 Jul 2019 12:00:52 PM PDT","500","1000","The main experiment item","yes","NA","ABX_v3.osexp","/home/ubuntu/Desktop/panara","no","no","mono","no","18","no","white","no","yes","768","0","0","/home/ubuntu/Desktop/panara/subject-114.csv","Jazzy James","3.1.3","3.2.3.wav","3.2.5.wav","3.2.5.wav","0","0","NA","0","NA","4908","NA","4908","NA","194594","return","2","1024","2","48000","-16","experiment","3.2.3.wav","3.2.5.wav","3.2.5.wav","114","even","196803","199321","198821","198056","NA","NA","195802","200095","1054","NA","NA","195800","205003","NA","195799","195652","NA","195803","1057","New experiment","NA","0","0","0","yes","1024"
"undefined","undefined","undefined","undefined","black","no","legacy","0","uniform","undefined","undefined","undefined","1","1","3","1","1","NA","1","1","0","0","0","1","1","0","1","0","NA","1","0","Fri 26 Jul 2019 12:00:52 PM PDT","500","1000","The main experiment item","yes","NA","ABX_v3.osexp","/home/ubuntu/Desktop/panara","no","no","mono","no","18","no","white","no","yes","768","1","1","/home/ubuntu/Desktop/panara/subject-114.csv","Jazzy James","3.1.3","3.1.3.wav","3.1.5.wav","3.1.5.wav","0","1","NA","1","NA","4854","NA","4854","NA","194594","return","2","1024","2","48000","-16","experiment","3.1.3.wav","3.1.5.wav","3.1.5.wav","114","even","206312","208830","208330","207563","NA","NA","205312","209596","1054","NA","NA","205309","214450","NA","205309","195652","NA","205312","1057","New experiment","NA","0","0","0","yes","1024"
"undefined","undefined","undefined","undefined","black","no","legacy","0","uniform","undefined","undefined","undefined","2","2","5","2","2","NA","2","2","0","0","0","2","2","0","2","0","NA","2","0","Fri 26 Jul 2019 12:00:52 PM PDT","500","1000","The main experiment item","yes","NA","ABX_v3.osexp","/home/ubuntu/Desktop/panara","yes","no","mono","no","18","no","white","no","yes","768","2","2","/home/ubuntu/Desktop/panara/subject-114.csv","Jazzy James","3.1.3","3.1.4.wav","3.1.4.wav","3.1.2.wav","0","0","NA","0","NA","5728","NA","5728","NA","194594","return","2","1024","2","48000","-16","experiment","3.1.2.wav","3.1.4.wav","3.1.4.wav","114","even","215662","218220","217720","216945","NA","NA","214661","219009","1054","NA","NA","214659","224738","NA","214659","195652","NA","214662","1057","New experiment","NA","0","0","0","yes","1024"
"undefined","undefined","undefined","undefined","black","no","legacy","0","uniform","undefined","undefined","undefined","3","3","7","3","3","NA","3","3","0","0","0","3","3","0","3","0","NA","3","0","Fri 26 Jul 2019 12:00:52 PM PDT","500","1000","The main experiment item","yes","NA","ABX_v3.osexp","/home/ubuntu/Desktop/panara","no","no","mono","no","18","no","white","no","yes","768","3","3","/home/ubuntu/Desktop/panara/subject-114.csv","Jazzy James","3.1.3","4.2.1.wav","4.2.3.wav","4.2.3.wav","0","1","NA","1","NA","4376","NA","4376","NA","194594","return","2","1024","2","48000","-16","experiment","4.2.1.wav","4.2.3.wav","4.2.3.wav","114","even","225935","228453","227953","227185","NA","NA","224935","229216","1054","NA","NA","224933","233593","NA","224933","195652","NA","224935","1057","New experiment","NA","0","0","0","yes","1024"
"undefined","undefined","undefined","undefined","black","no","legacy","0","uniform","undefined","undefined","undefined","4","4","9","4","4","NA","4","4","0","0","0","4","4","0","4","0","NA","4","0","Fri 26 Jul 2019 12:00:52 PM PDT","500","1000","The main experiment item","yes","NA","ABX_v3.osexp","/home/ubuntu/Desktop/panara","yes","no","mono","no","18","no","white","no","yes","768","4","4","/home/ubuntu/Desktop/panara/subject-114.csv","Jazzy James","3.1.3","2.1.3.wav","2.1.1.wav","2.1.1.wav","0","1","NA","1","NA","5201","NA","5201","NA","194594","return","2","1024","2","48000","-16","experiment","2.1.1.wav","2.1.3.wav","2.1.1.wav","114","even","234745","237263","236763","236006","NA","NA","233744","238023","1054","NA","NA","233742","243224","NA","233742","195652","NA","233745","1057","New experiment","NA","0","0","0","yes","1024"
"undefined","undefined","undefined","undefined","black","no","legacy","0","uniform","undefined","undefined","undefined","5","5","11","5","5","NA","5","5","0","0","0","5","5","0","5","0","NA","5","0","Fri 26 Jul 2019 12:00:52 PM PDT","500","1000","The main experiment item","yes","NA","ABX_v3.osexp","/home/ubuntu/Desktop/panara","no","no","mono","no","18","no","white","no","yes","768","5","5","/home/ubuntu/Desktop/panara/subject-114.csv","Jazzy James","3.1.3","1.1.3.wav","1.1.5.wav","1.1.5.wav","0","0","NA","0","NA","3354","NA","3354","NA","194594","return","2","1024","2","48000","-16","experiment","1.1.3.wav","1.1.5.wav","1.1.5.wav","114","even","244409","246990","246490","245711","NA","NA","243409","247757","1054","NA","NA","243406","251111","NA","243406","195652","NA","243409","1057","New experiment","NA","0","0","0","yes","1024"
"undefined","undefined","undefined","undefined","black","no","legacy","0","uniform","undefined","undefined","undefined","6","6","13","6","6","NA","6","6","0","0","0","6","6","0","6","0","NA","6","0","Fri 26 Jul 2019 12:00:52 PM PDT","500","1000","The main experiment item","yes","NA","ABX_v3.osexp","/home/ubuntu/Desktop/panara","no","no","mono","no","18","no","white","no","yes","768","6","6","/home/ubuntu/Desktop/panara/subject-114.csv","Jazzy James","3.1.3","4.1.3.wav","4.1.5.wav","4.1.5.wav","0","0","NA","0","NA","8419","NA","8419","NA","194594","return","2","1024","2","48000","-16","experiment","4.1.3.wav","4.1.5.wav","4.1.5.wav","114","even","252326","254761","254261","253545","NA","NA","251326","255484","1054","NA","NA","251323","263903","NA","251323","195652","NA","251326","1057","New experiment","NA","0","0","0","yes","1024"
"undefined","undefined","undefined","undefined","black","no","legacy","0","uniform","undefined","undefined","undefined","7","7","15","7","7","NA","7","7","0","0","0","7","7","0","7","0","NA","7","0","Fri 26 Jul 2019 12:00:52 PM PDT","500","1000","The main experiment item","yes","NA","ABX_v3.osexp","/home/ubuntu/Desktop/panara","yes","no","mono","no","18","no","white","no","yes","768","7","7","/home/ubuntu/Desktop/panara/subject-114.csv","Jazzy James","3.1.3","1.2.4.wav","1.2.4.wav","1.2.2.wav","0","1","NA","1","NA","2690","NA","2690","NA","194594","return","2","1024","2","48000","-16","experiment","1.2.2.wav","1.2.4.wav","1.2.4.wav","114","even","265103","267601","267101","266359","NA","NA","264102","268371","1054","NA","NA","264100","271062","NA","264100","195652","NA","264103","1057","New experiment","NA","0","0","0","yes","1024"
"undefined","undefined","undefined","undefined","black","no","legacy","0","uniform","undefined","undefined","undefined","8","8","17","8","8","NA","8","8","0","0","0","8","8","0","8","0","NA","8","0","Fri 26 Jul 2019 12:00:52 PM PDT","500","1000","The main experiment item","yes","NA","ABX_v3.osexp","/home/ubuntu/Desktop/panara","no","no","mono","no","18","no","white","no","yes","768","8","8","/home/ubuntu/Desktop/panara/subject-114.csv","Jazzy James","3.1.3","4.1.1.wav","4.1.3.wav","4.1.3.wav","0","0","NA","0","NA","3292","NA","3292","NA","194594","return","2","1024","2","48000","-16","experiment","4.1.1.wav","4.1.3.wav","4.1.3.wav","114","even","272231","274661","274161","273448","NA","NA","271231","275385","1054","NA","NA","271229","278677","NA","271229","195652","NA","271231","1057","New experiment","NA","0","0","0","yes","1024"
"undefined","undefined","undefined","undefined","black","no","legacy","0","uniform","undefined","undefined","undefined","9","9","19","9","9","NA","9","9","0","0","0","9","9","0","9","0","NA","9","0","Fri 26 Jul 2019 12:00:52 PM PDT","500","1000","The main experiment item","yes","NA","ABX_v3.osexp","/home/ubuntu/Desktop/panara","yes","no","mono","no","18","no","white","no","yes","768","9","9","/home/ubuntu/Desktop/panara/subject-114.csv","Jazzy James","3.1.3","5.2.5.wav","5.2.3.wav","5.2.3.wav","0","1","NA","1","NA","3176","NA","3176","NA","194594","return","2","1024","2","48000","-16","experiment","5.2.3.wav","5.2.5.wav","5.2.3.wav","114","even","279880","282329","281829","281102","NA","NA","278880","283052","1054","NA","NA","278877","286229","NA","278877","195652","NA","278880","1057","New experiment","NA","0","0","0","yes","1024"
"undefined","undefined","undefined","undefined","black","no","legacy","0","uniform","undefined","undefined","undefined","10","10","21","10","10","NA","10","10","0","0","0","10","10","0","10","0","NA","10","0","Fri 26 Jul 2019 12:00:52 PM PDT","500","1000","The main experiment item","yes","NA","ABX_v3.osexp","/home/ubuntu/Desktop/panara","yes","no","mono","no","18","no","white","no","yes","768","10","10","/home/ubuntu/Desktop/panara/subject-114.csv","Jazzy James","3.1.3","2.2.5.wav","2.2.3.wav","2.2.3.wav","0","0","NA","0","NA","4894","NA","4894","NA","194594","return","2","1024","2","48000","-16","experiment","2.2.3.wav","2.2.5.wav","2.2.3.wav","114","even","287420","289869","289369","288644","NA","NA","286419","290614","1054","NA","NA","286416","295508","NA","286416","195652","NA","286420","1057","New experiment","NA","0","0","0","yes","1024"
"undefined","undefined","undefined","undefined","black","no","legacy","0","uniform","undefined","undefined","undefined","11","11","23","11","11","NA","11","11","0","0","0","11","11","0","11","0","NA","11","0","Fri 26 Jul 2019 12:00:52 PM PDT","500","1000","The main experiment item","yes","NA","ABX_v3.osexp","/home/ubuntu/Desktop/panara","yes","no","mono","no","18","no","white","no","yes","768","11","11","/home/ubuntu/Desktop/panara/subject-114.csv","Jazzy James","3.1.3","1.1.5.wav","1.1.3.wav","1.1.3.wav","0","0","NA","0","NA","5424","NA","5424","NA","194594","return","2","1024","2","48000","-16","experiment","1.1.3.wav","1.1.5.wav","1.1.3.wav","114","even","296667","299284","298784","297965","NA","NA","295667","300083","1054","NA","NA","295664","305507","NA","295664","195652","NA","295667","1057","New experiment","NA","0","0","0","yes","1024"
"undefined","undefined","undefined","undefined","black","no","legacy","0","uniform","undefined","undefined","undefined","12","12","25","12","12","NA","12","12","0","0","0","12","12","0","12","0","NA","12","0","Fri 26 Jul 2019 12:00:52 PM PDT","500","1000","The main experiment item","yes","NA","ABX_v3.osexp","/home/ubuntu/Desktop/panara","yes","no","mono","no","18","no","white","no","yes","768","12","12","/home/ubuntu/Desktop/panara/subject-114.csv","Jazzy James","3.1.3","4.2.3.wav","4.2.1.wav","4.2.1.wav","0","0","NA","0","NA","3769","NA","3769","NA","194594","return","2","1024","2","48000","-16","experiment","4.2.1.wav","4.2.3.wav","4.2.1.wav","114","even","306665","309154","308654","307907","NA","NA","305665","309889","1054","NA","NA","305662","313659","NA","305662","195652","NA","305665","1057","New experiment","NA","0","0","0","yes","1024"
"undefined","undefined","undefined","undefined","black","no","legacy","0","uniform","undefined","undefined","undefined","13","13","27","13","13","NA","13","13","0","0","0","13","13","0","13","0","NA","13","0","Fri 26 Jul 2019 12:00:52 PM PDT","500","1000","The main experiment item","yes","NA","ABX_v3.osexp","/home/ubuntu/Desktop/panara","no","no","mono","no","18","no","white","no","yes","768","13","13","/home/ubuntu/Desktop/panara/subject-114.csv","Jazzy James","3.1.3","1.2.1.wav","1.2.3.wav","1.2.3.wav","0","1","NA","1","NA","1246","NA","1246","NA","194594","return","2","1024","2","48000","-16","experiment","1.2.1.wav","1.2.3.wav","1.2.3.wav","114","even","314890","317448","316948","316180","NA","NA","313890","318244","1054","NA","NA","313887","319490","NA","313887","195652","NA","313890","1057","New experiment","NA","0","0","0","yes","1024"
"undefined","undefined","undefined","undefined","black","no","legacy","0","uniform","undefined","undefined","undefined","14","14","29","14","14","NA","14","14","0","0","0","14","14","0","14","0","NA","14","0","Fri 26 Jul 2019 12:00:52 PM PDT","500","1000","The main experiment item","yes","NA","ABX_v3.osexp","/home/ubuntu/Desktop/panara","no","no","mono","no","18","no","white","no","yes","768","14","14","/home/ubuntu/Desktop/panara/subject-114.csv","Jazzy James","3.1.3","2.1.3.wav","2.1.3.wav","2.1.5.wav","0","1","NA","1","NA","2077","NA","2077","NA","194594","return","2","1024","2","48000","-16","experiment","2.1.3.wav","2.1.5.wav","2.1.3.wav","114","even","320666","323195","322695","321924","NA","NA","319666","323948","1054","NA","NA","319663","326026","NA","319663","195652","NA","319666","1057","New experiment","NA","0","0","0","yes","1024"
"undefined","undefined","undefined","undefined","black","no","legacy","0","uniform","undefined","undefined","undefined","15","15","31","15","15","NA","15","15","0","0","0","15","15","0","15","0","NA","15","0","Fri 26 Jul 2019 12:00:52 PM PDT","500","1000","The main experiment item","yes","NA","ABX_v3.osexp","/home/ubuntu/Desktop/panara","no","no","mono","no","18","no","white","no","yes","768","15","15","/home/ubuntu/Desktop/panara/subject-114.csv","Jazzy James","3.1.3","1.1.2.wav","1.1.2.wav","1.1.4.wav","0","0","NA","0","NA","4883","NA","4883","NA","194594","return","2","1024","2","48000","-16","experiment","1.1.2.wav","1.1.4.wav","1.1.2.wav","114","even","327200","329775","329275","328481","NA","NA","326199","330574","1054","NA","NA","326196","335457","NA","326196","195652","NA","326200","1057","New experiment","NA","0","0","0","yes","1024"
"undefined","undefined","undefined","undefined","black","no","legacy","0","uniform","undefined","undefined","undefined","16","16","33","16","16","NA","16","16","0","0","0","16","16","0","16","0","NA","16","0","Fri 26 Jul 2019 12:00:52 PM PDT","500","1000","The main experiment item","yes","NA","ABX_v3.osexp","/home/ubuntu/Desktop/panara","yes","no","mono","no","18","no","white","no","yes","768","16","16","/home/ubuntu/Desktop/panara/subject-114.csv","Jazzy James","3.1.3","5.2.5.wav","5.2.5.wav","5.2.3.wav","0","0","NA","0","NA","3034","NA","3034","NA","194594","return","2","1024","2","48000","-16","experiment","5.2.3.wav","5.2.5.wav","5.2.5.wav","114","even","336617","339093","338593","337874","NA","NA","335617","339815","1054","NA","NA","335614","342850","NA","335614","195652","NA","335617","1057","New experiment","NA","0","0","0","yes","1024"
"undefined","undefined","undefined","undefined","black","no","legacy","0","uniform","undefined","undefined","undefined","17","17","35","17","17","NA","17","17","0","0","0","17","17","0","17","0","NA","17","0","Fri 26 Jul 2019 12:00:52 PM PDT","500","1000","The main experiment item","yes","NA","ABX_v3.osexp","/home/ubuntu/Desktop/panara","yes","no","mono","no","18","no","white","no","yes","768","17","17","/home/ubuntu/Desktop/panara/subject-114.csv","Jazzy James","3.1.3","4.2.5.wav","4.2.5.wav","4.2.3.wav","0","1","NA","1","NA","1714","NA","1714","NA","194594","return","2","1024","2","48000","-16","experiment","4.2.3.wav","4.2.5.wav","4.2.5.wav","114","even","343990","346470","345970","345254","NA","NA","342990","347215","1054","NA","NA","342988","348929","NA","342988","195652","NA","342990","1057","New experiment","NA","0","0","0","yes","1024"
"undefined","undefined","undefined","undefined","black","no","legacy","0","uniform","undefined","undefined","undefined","18","18","37","18","18","NA","18","18","0","0","0","18","18","0","18","0","NA","18","0","Fri 26 Jul 2019 12:00:52 PM PDT","500","1000","The main experiment item","yes","NA","ABX_v3.osexp","/home/ubuntu/Desktop/panara","yes","no","mono","no","18","no","white","no","yes","768","18","18","/home/ubuntu/Desktop/panara/subject-114.csv","Jazzy James","3.1.3","3.2.3.wav","3.2.1.wav","3.2.1.wav","0","1","NA","1","NA","1448","NA","1448","NA","194594","return","2","1024","2","48000","-16","experiment","3.2.1.wav","3.2.3.wav","3.2.1.wav","114","even","350114","352613","352113","351362","NA","NA","349114","353359","1054","NA","NA","349112","354808","NA","349112","195652","NA","349114","1057","New experiment","NA","0","0","0","yes","1024"
"undefined","undefined","undefined","undefined","black","no","legacy","0","uniform","undefined","undefined","undefined","19","19","39","19","19","NA","19","19","0","0","0","19","19","0","19","0","NA","19","0","Fri 26 Jul 2019 12:00:52 PM PDT","500","1000","The main experiment item","yes","NA","ABX_v3.osexp","/home/ubuntu/Desktop/panara","yes","no","mono","no","18","no","white","no","yes","768","19","19","/home/ubuntu/Desktop/panara/subject-114.csv","Jazzy James","3.1.3","1.2.4.wav","1.2.2.wav","1.2.2.wav","0","0","NA","0","NA","1133","NA","1133","NA","194594","return","2","1024","2","48000","-16","experiment","1.2.2.wav","1.2.4.wav","1.2.2.wav","114","even","355976","358501","358001","357221","NA","NA","354975","359282","1054","NA","NA","354973","360416","NA","354973","195652","NA","354976","1057","New experiment","NA","0","0","0","yes","1024"
"undefined","undefined","undefined","undefined","black","no","legacy","0","uniform","undefined","undefined","undefined","20","20","41","20","20","NA","20","20","0","0","0","20","20","0","20","0","NA","20","0","Fri 26 Jul 2019 12:00:52 PM PDT","500","1000","The main experiment item","yes","NA","ABX_v3.osexp","/home/ubuntu/Desktop/panara","yes","no","mono","no","18","no","white","no","yes","768","20","20","/home/ubuntu/Desktop/panara/subject-114.csv","Jazzy James","3.1.3","3.1.3.wav","3.1.3.wav","3.1.1.wav","0","1","NA","1","NA","2612","NA","2612","NA","194594","return","2","1024","2","48000","-16","experiment","3.1.1.wav","3.1.3.wav","3.1.3.wav","114","even","361596","364097","363597","362852","NA","NA","360596","364851","1054","NA","NA","360593","367463","NA","360593","195652","NA","360596","1057","New experiment","NA","0","0","0","yes","1024"
"undefined","undefined","undefined","undefined","black","no","legacy","0","uniform","undefined","undefined","undefined","21","21","43","21","21","NA","21","21","0","0","0","21","21","0","21","0","NA","21","0","Fri 26 Jul 2019 12:00:52 PM PDT","500","1000","The main experiment item","yes","NA","ABX_v3.osexp","/home/ubuntu/Desktop/panara","no","no","mono","no","18","no","white","no","yes","768","21","21","/home/ubuntu/Desktop/panara/subject-114.csv","Jazzy James","3.1.3","2.1.3.wav","2.1.5.wav","2.1.5.wav","0","0","NA","0","NA","2450","NA","2450","NA","194594","return","2","1024","2","48000","-16","experiment","2.1.3.wav","2.1.5.wav","2.1.5.wav","114","even","368625","371129","370629","369878","NA","NA","367625","371876","1054","NA","NA","367622","374327","NA","367622","195652","NA","367625","1057","New experiment","NA","0","0","0","yes","1024"
"undefined","undefined","undefined","undefined","black","no","legacy","0","uniform","undefined","undefined","undefined","22","22","45","22","22","NA","22","22","0","0","0","22","22","0","22","0","NA","22","0","Fri 26 Jul 2019 12:00:52 PM PDT","500","1000","The main experiment item","yes","NA","ABX_v3.osexp","/home/ubuntu/Desktop/panara","yes","no","mono","no","18","no","white","no","yes","768","22","22","/home/ubuntu/Desktop/panara/subject-114.csv","Jazzy James","3.1.3","2.2.5.wav","2.2.5.wav","2.2.3.wav","0","1","NA","1","NA","1898","NA","1898","NA","194594","return","2","1024","2","48000","-16","experiment","2.2.3.wav","2.2.5.wav","2.2.5.wav","114","even","375458","377933","377433","376717","NA","NA","374458","378652","1054","NA","NA","374456","380550","NA","374456","195652","NA","374458","1057","New experiment","NA","0","0","0","yes","1024"
"undefined","undefined","undefined","undefined","black","no","legacy","0","uniform","undefined","undefined","undefined","23","23","47","23","23","NA","23","23","0","0","0","23","23","0","23","0","NA","23","0","Fri 26 Jul 2019 12:00:52 PM PDT","500","1000","The main experiment item","yes","NA","ABX_v3.osexp","/home/ubuntu/Desktop/panara","no","no","mono","no","18","no","white","no","yes","768","23","23","/home/ubuntu/Desktop/panara/subject-114.csv","Jazzy James","3.1.3","4.1.2.wav","4.1.2.wav","4.1.4.wav","0","1","NA","1","NA","1617","NA","1617","NA","194594","return","2","1024","2","48000","-16","experiment","4.1.2.wav","4.1.4.wav","4.1.2.wav","114","even","381787","384270","383770","383054","NA","NA","380787","384988","1054","NA","NA","380785","386606","NA","380785","195652","NA","380787","1057","New experiment","NA","0","0","0","yes","1024"
"undefined","undefined","undefined","undefined","black","no","legacy","0","uniform","undefined","undefined","undefined","24","24","49","24","24","NA","24","24","0","0","0","24","24","0","24","0","NA","24","0","Fri 26 Jul 2019 12:00:52 PM PDT","500","1000","The main experiment item","yes","NA","ABX_v3.osexp","/home/ubuntu/Desktop/panara","yes","no","mono","no","18","no","white","no","yes","768","24","24","/home/ubuntu/Desktop/panara/subject-114.csv","Jazzy James","3.1.3","1.2.3.wav","1.2.1.wav","1.2.1.wav","0","0","NA","0","NA","1618","NA","1618","NA","194594","return","2","1024","2","48000","-16","experiment","1.2.1.wav","1.2.3.wav","1.2.1.wav","114","even","387777","390350","389850","389068","NA","NA","386777","391131","1054","NA","NA","386775","392749","NA","386774","195652","NA","386777","1057","New experiment","NA","0","0","0","yes","1024"
"undefined","undefined","undefined","undefined","black","no","legacy","0","uniform","undefined","undefined","undefined","25","25","51","25","25","NA","25","25","0","0","0","25","25","0","25","0","NA","25","0","Fri 26 Jul 2019 12:00:52 PM PDT","500","1000","The main experiment item","yes","NA","ABX_v3.osexp","/home/ubuntu/Desktop/panara","no","no","mono","no","18","no","white","no","yes","768","25","25","/home/ubuntu/Desktop/panara/subject-114.csv","Jazzy James","3.1.3","2.2.2.wav","2.2.2.wav","2.2.4.wav","0","1","NA","1","NA","2079","NA","2079","NA","194594","return","2","1024","2","48000","-16","experiment","2.2.2.wav","2.2.4.wav","2.2.2.wav","114","even","393959","396408","395908","395190","NA","NA","392959","397125","1054","NA","NA","392956","399205","NA","392956","195652","NA","392959","1057","New experiment","NA","0","0","0","yes","1024"
"undefined","undefined","undefined","undefined","black","no","legacy","0","uniform","undefined","undefined","undefined","26","26","53","26","26","NA","26","26","0","0","0","26","26","0","26","0","NA","26","0","Fri 26 Jul 2019 12:00:52 PM PDT","500","1000","The main experiment item","yes","NA","ABX_v3.osexp","/home/ubuntu/Desktop/panara","no","no","mono","no","18","no","white","no","yes","768","26","26","/home/ubuntu/Desktop/panara/subject-114.csv","Jazzy James","3.1.3","2.1.2.wav","2.1.2.wav","2.1.4.wav","0","1","NA","1","NA","1154","NA","1154","NA","194594","return","2","1024","2","48000","-16","experiment","2.1.2.wav","2.1.4.wav","2.1.2.wav","114","even","400418","402921","402421","401676","NA","NA","399417","403674","1054","NA","NA","399414","404828","NA","399414","195652","NA","399417","1057","New experiment","NA","0","0","0","yes","1024"
"undefined","undefined","undefined","undefined","black","no","legacy","0","uniform","undefined","undefined","undefined","27","27","55","27","27","NA","27","27","0","0","0","27","27","0","27","0","NA","27","0","Fri 26 Jul 2019 12:00:52 PM PDT","500","1000","The main experiment item","yes","NA","ABX_v3.osexp","/home/ubuntu/Desktop/panara","yes","no","mono","no","18","no","white","no","yes","768","27","27","/home/ubuntu/Desktop/panara/subject-114.csv","Jazzy James","3.1.3","1.1.3.wav","1.1.1.wav","1.1.1.wav","0","1","NA","1","NA","2850","NA","2850","NA","194594","return","2","1024","2","48000","-16","experiment","1.1.1.wav","1.1.3.wav","1.1.1.wav","114","even","406055","408668","408168","407370","NA","NA","405055","409450","1054","NA","NA","405052","412300","NA","405052","195652","NA","405055","1057","New experiment","NA","0","0","0","yes","1024"
"undefined","undefined","undefined","undefined","black","no","legacy","0","uniform","undefined","undefined","undefined","28","28","57","28","28","NA","28","28","0","0","0","28","28","0","28","0","NA","28","0","Fri 26 Jul 2019 12:00:52 PM PDT","500","1000","The main experiment item","yes","NA","ABX_v3.osexp","/home/ubuntu/Desktop/panara","no","no","mono","no","18","no","white","no","yes","768","28","28","/home/ubuntu/Desktop/panara/subject-114.csv","Jazzy James","3.1.3","3.2.1.wav","3.2.3.wav","3.2.3.wav","0","1","NA","1","NA","1457","NA","1457","NA","194594","return","2","1024","2","48000","-16","experiment","3.2.1.wav","3.2.3.wav","3.2.3.wav","114","even","413459","415990","415490","414727","NA","NA","412459","416738","1054","NA","NA","412457","418196","NA","412456","195652","NA","412459","1057","New experiment","NA","0","0","0","yes","1024"
"undefined","undefined","undefined","undefined","black","no","legacy","0","uniform","undefined","undefined","undefined","29","29","59","29","29","NA","29","29","0","0","0","29","29","0","29","0","NA","29","0","Fri 26 Jul 2019 12:00:52 PM PDT","500","1000","The main experiment item","yes","NA","ABX_v3.osexp","/home/ubuntu/Desktop/panara","no","no","mono","no","18","no","white","no","yes","768","29","29","/home/ubuntu/Desktop/panara/subject-114.csv","Jazzy James","3.1.3","2.1.1.wav","2.1.3.wav","2.1.3.wav","0","1","NA","1","NA","7667","NA","7667","NA","194594","return","2","1024","2","48000","-16","experiment","2.1.1.wav","2.1.3.wav","2.1.3.wav","114","even","419390","421907","421407","420657","NA","NA","418390","422655","1054","NA","NA","418387","430323","NA","418387","195652","NA","418390","1057","New experiment","NA","0","0","0","yes","1024"
"undefined","undefined","undefined","undefined","black","no","legacy","0","uniform","undefined","undefined","undefined","30","30","61","30","30","NA","30","30","0","0","0","30","30","0","30","0","NA","30","0","Fri 26 Jul 2019 12:00:52 PM PDT","500","1000","The main experiment item","yes","NA","ABX_v3.osexp","/home/ubuntu/Desktop/panara","no","no","mono","no","18","no","white","no","yes","768","30","30","/home/ubuntu/Desktop/panara/subject-114.csv","Jazzy James","3.1.3","1.1.1.wav","1.1.3.wav","1.1.3.wav","0","1","NA","1","NA","5387","NA","5387","NA","194594","return","2","1024","2","48000","-16","experiment","1.1.1.wav","1.1.3.wav","1.1.3.wav","114","even","431475","434095","433595","432787","NA","NA","430475","434879","1054","NA","NA","430472","440266","NA","430472","195652","NA","430475","1057","New experiment","NA","0","0","0","yes","1024"
"undefined","undefined","undefined","undefined","black","no","legacy","0","uniform","undefined","undefined","undefined","31","31","63","31","31","NA","31","31","0","0","0","31","31","0","31","0","NA","31","0","Fri 26 Jul 2019 12:00:52 PM PDT","500","1000","The main experiment item","yes","NA","ABX_v3.osexp","/home/ubuntu/Desktop/panara","yes","no","mono","no","18","no","white","no","yes","768","31","31","/home/ubuntu/Desktop/panara/subject-114.csv","Jazzy James","3.1.3","3.1.4.wav","3.1.2.wav","3.1.2.wav","0","1","NA","1","NA","1675","NA","1675","NA","194594","return","2","1024","2","48000","-16","experiment","3.1.2.wav","3.1.4.wav","3.1.2.wav","114","even","441459","443999","443499","442741","NA","NA","440458","444782","1054","NA","NA","440456","446458","NA","440456","195652","NA","440459","1057","New experiment","NA","0","0","0","yes","1024"
"undefined","undefined","undefined","undefined","black","no","legacy","0","uniform","undefined","undefined","undefined","32","32","65","32","32","NA","32","32","0","0","0","32","32","0","32","0","NA","32","0","Fri 26 Jul 2019 12:00:52 PM PDT","500","1000","The main experiment item","yes","NA","ABX_v3.osexp","/home/ubuntu/Desktop/panara","no","no","mono","no","18","no","white","no","yes","768","32","32","/home/ubuntu/Desktop/panara/subject-114.csv","Jazzy James","3.1.3","5.2.1.wav","5.2.1.wav","5.2.3.wav","0","1","NA","1","NA","1848","NA","1848","NA","194594","return","2","1024","2","48000","-16","experiment","5.2.1.wav","5.2.3.wav","5.2.1.wav","114","even","447679","450115","449615","448892","NA","NA","446679","450841","1054","NA","NA","446676","452689","NA","446676","195652","NA","446679","1057","New experiment","NA","0","0","0","yes","1024"
"undefined","undefined","undefined","undefined","black","no","legacy","0","uniform","undefined","undefined","undefined","33","33","67","33","33","NA","33","33","0","0","0","33","33","0","33","0","NA","33","0","Fri 26 Jul 2019 12:00:52 PM PDT","500","1000","The main experiment item","yes","NA","ABX_v3.osexp","/home/ubuntu/Desktop/panara","no","no","mono","no","18","no","white","no","yes","768","33","33","/home/ubuntu/Desktop/panara/subject-114.csv","Jazzy James","3.1.3","2.1.2.wav","2.1.4.wav","2.1.4.wav","0","0","NA","0","NA","1464","NA","1464","NA","194594","return","2","1024","2","48000","-16","experiment","2.1.2.wav","2.1.4.wav","2.1.4.wav","114","even","453868","456367","455867","455121","NA","NA","452868","457120","1054","NA","NA","452865","458585","NA","452865","195652","NA","452868","1057","New experiment","NA","0","0","0","yes","1024"
"undefined","undefined","undefined","undefined","black","no","legacy","0","uniform","undefined","undefined","undefined","34","34","69","34","34","NA","34","34","0","0","0","34","34","0","34","0","NA","34","0","Fri 26 Jul 2019 12:00:52 PM PDT","500","1000","The main experiment item","yes","NA","ABX_v3.osexp","/home/ubuntu/Desktop/panara","yes","no","mono","no","18","no","white","no","yes","768","34","34","/home/ubuntu/Desktop/panara/subject-114.csv","Jazzy James","3.1.3","5.2.4.wav","5.2.2.wav","5.2.2.wav","0","0","NA","0","NA","1358","NA","1358","NA","194594","return","2","1024","2","48000","-16","experiment","5.2.2.wav","5.2.4.wav","5.2.2.wav","114","even","459771","462231","461731","461030","NA","NA","458771","462930","1054","NA","NA","458768","464288","NA","458768","195652","NA","458771","1057","New experiment","NA","0","0","0","yes","1024"
"undefined","undefined","undefined","undefined","black","no","legacy","0","uniform","undefined","undefined","undefined","35","35","71","35","35","NA","35","35","0","0","0","35","35","0","35","0","NA","35","0","Fri 26 Jul 2019 12:00:52 PM PDT","500","1000","The main experiment item","yes","NA","ABX_v3.osexp","/home/ubuntu/Desktop/panara","no","no","mono","no","18","no","white","no","yes","768","35","35","/home/ubuntu/Desktop/panara/subject-114.csv","Jazzy James","3.1.3","4.1.3.wav","4.1.3.wav","4.1.5.wav","0","1","NA","1","NA","1420","NA","1420","NA","194594","return","2","1024","2","48000","-16","experiment","4.1.3.wav","4.1.5.wav","4.1.3.wav","114","even","465452","467912","467412","466691","NA","NA","464451","468651","1054","NA","NA","464449","470072","NA","464449","195652","NA","464452","1057","New experiment","NA","0","0","0","yes","1024"
"undefined","undefined","undefined","undefined","black","no","legacy","0","uniform","undefined","undefined","undefined","36","36","73","36","36","NA","36","36","0","0","0","36","36","0","36","0","NA","36","0","Fri 26 Jul 2019 12:00:52 PM PDT","500","1000","The main experiment item","yes","NA","ABX_v3.osexp","/home/ubuntu/Desktop/panara","yes","no","mono","no","18","no","white","no","yes","768","36","36","/home/ubuntu/Desktop/panara/subject-114.csv","Jazzy James","3.1.3","4.1.3.wav","4.1.1.wav","4.1.1.wav","0","0","NA","0","NA","1670","NA","1670","NA","194594","return","2","1024","2","48000","-16","experiment","4.1.1.wav","4.1.3.wav","4.1.1.wav","114","even","471223","473708","473208","472455","NA","NA","470223","474433","1054","NA","NA","470220","476103","NA","470220","195652","NA","470223","1057","New experiment","NA","0","0","0","yes","1024"
"undefined","undefined","undefined","undefined","black","no","legacy","0","uniform","undefined","undefined","undefined","37","37","75","37","37","NA","37","37","0","0","0","37","37","0","37","0","NA","37","0","Fri 26 Jul 2019 12:00:52 PM PDT","500","1000","The main experiment item","yes","NA","ABX_v3.osexp","/home/ubuntu/Desktop/panara","yes","no","mono","no","18","no","white","no","yes","768","37","37","/home/ubuntu/Desktop/panara/subject-114.csv","Jazzy James","3.1.3","2.2.3.wav","2.2.3.wav","2.2.1.wav","0","1","NA","1","NA","2065","NA","2065","NA","194594","return","2","1024","2","48000","-16","experiment","2.2.1.wav","2.2.3.wav","2.2.3.wav","114","even","477293","479752","479252","478531","NA","NA","476292","480470","1054","NA","NA","476290","482535","NA","476289","195652","NA","476293","1057","New experiment","NA","0","0","0","yes","1024"
"undefined","undefined","undefined","undefined","black","no","legacy","0","uniform","undefined","undefined","undefined","38","38","77","38","38","NA","38","38","0","0","0","38","38","0","38","0","NA","38","0","Fri 26 Jul 2019 12:00:52 PM PDT","500","1000","The main experiment item","yes","NA","ABX_v3.osexp","/home/ubuntu/Desktop/panara","no","no","mono","no","18","no","white","no","yes","768","38","38","/home/ubuntu/Desktop/panara/subject-114.csv","Jazzy James","3.1.3","4.1.2.wav","4.1.4.wav","4.1.4.wav","0","1","NA","1","NA","3276","NA","3276","NA","194594","return","2","1024","2","48000","-16","experiment","4.1.2.wav","4.1.4.wav","4.1.4.wav","114","even","483704","486187","485687","484950","NA","NA","482704","486906","1054","NA","NA","482701","490182","NA","482701","195652","NA","482704","1057","New experiment","NA","0","0","0","yes","1024"
"undefined","undefined","undefined","undefined","black","no","legacy","0","uniform","undefined","undefined","undefined","39","39","79","39","39","NA","39","39","0","0","0","39","39","0","39","0","NA","39","0","Fri 26 Jul 2019 12:00:52 PM PDT","500","1000","The main experiment item","yes","NA","ABX_v3.osexp","/home/ubuntu/Desktop/panara","yes","no","mono","no","18","no","white","no","yes","768","39","39","/home/ubuntu/Desktop/panara/subject-114.csv","Jazzy James","3.1.3","3.2.5.wav","3.2.3.wav","3.2.3.wav","0","1","NA","1","NA","1221","NA","1221","NA","194594","return","2","1024","2","48000","-16","experiment","3.2.3.wav","3.2.5.wav","3.2.3.wav","114","even","491355","493881","493381","492630","NA","NA","490354","494634","1054","NA","NA","490352","495855","NA","490352","195652","NA","490355","1057","New experiment","NA","0","0","0","yes","1024"
"undefined","undefined","undefined","undefined","black","no","legacy","0","uniform","undefined","undefined","undefined","40","40","81","40","40","NA","40","40","0","0","0","40","40","0","40","0","NA","40","0","Fri 26 Jul 2019 12:00:52 PM PDT","500","1000","The main experiment item","yes","NA","ABX_v3.osexp","/home/ubuntu/Desktop/panara","yes","no","mono","no","18","no","white","no","yes","768","40","40","/home/ubuntu/Desktop/panara/subject-114.csv","Jazzy James","3.1.3","3.1.3.wav","3.1.1.wav","3.1.1.wav","0","1","NA","1","NA","1486","NA","1486","NA","194594","return","2","1024","2","48000","-16","experiment","3.1.1.wav","3.1.3.wav","3.1.1.wav","114","even","497012","499533","499033","498283","NA","NA","496012","500287","1054","NA","NA","496009","501774","NA","496009","195652","NA","496012","1057","New experiment","NA","0","0","0","yes","1024"
"undefined","undefined","undefined","undefined","black","no","legacy","0","uniform","undefined","undefined","undefined","41","41","83","41","41","NA","41","41","0","0","0","41","41","0","41","0","NA","41","0","Fri 26 Jul 2019 12:00:52 PM PDT","500","1000","The main experiment item","yes","NA","ABX_v3.osexp","/home/ubuntu/Desktop/panara","yes","no","mono","no","18","no","white","no","yes","768","41","41","/home/ubuntu/Desktop/panara/subject-114.csv","Jazzy James","3.1.3","3.2.4.wav","3.2.4.wav","3.2.2.wav","0","1","NA","1","NA","1292","NA","1292","NA","194594","return","2","1024","2","48000","-16","experiment","3.2.2.wav","3.2.4.wav","3.2.4.wav","114","even","502950","505443","504943","504193","NA","NA","501949","506225","1054","NA","NA","501947","507517","NA","501947","195652","NA","501950","1057","New experiment","NA","0","0","0","yes","1024"
"undefined","undefined","undefined","undefined","black","no","legacy","0","uniform","undefined","undefined","undefined","42","42","85","42","42","NA","42","42","0","0","0","42","42","0","42","0","NA","42","0","Fri 26 Jul 2019 12:00:52 PM PDT","500","1000","The main experiment item","yes","NA","ABX_v3.osexp","/home/ubuntu/Desktop/panara","yes","no","mono","no","18","no","white","no","yes","768","42","42","/home/ubuntu/Desktop/panara/subject-114.csv","Jazzy James","3.1.3","3.1.5.wav","3.1.3.wav","3.1.3.wav","0","0","NA","0","NA","1337","NA","1337","NA","194594","return","2","1024","2","48000","-16","experiment","3.1.3.wav","3.1.5.wav","3.1.3.wav","114","even","508743","511274","510774","510021","NA","NA","507743","512035","1054","NA","NA","507741","513373","NA","507741","195652","NA","507743","1057","New experiment","NA","0","0","0","yes","1024"
"undefined","undefined","undefined","undefined","black","no","legacy","0","uniform","undefined","undefined","undefined","43","43","87","43","43","NA","43","43","0","0","0","43","43","0","43","0","NA","43","0","Fri 26 Jul 2019 12:00:52 PM PDT","500","1000","The main experiment item","yes","NA","ABX_v3.osexp","/home/ubuntu/Desktop/panara","no","no","mono","no","18","no","white","no","yes","768","43","43","/home/ubuntu/Desktop/panara/subject-114.csv","Jazzy James","3.1.3","1.1.2.wav","1.1.4.wav","1.1.4.wav","0","0","NA","0","NA","1518","NA","1518","NA","194594","return","2","1024","2","48000","-16","experiment","1.1.2.wav","1.1.4.wav","1.1.4.wav","114","even","514534","517141","516641","515860","NA","NA","513534","517926","1054","NA","NA","513532","519444","NA","513532","195652","NA","513534","1057","New experiment","NA","0","0","0","yes","1024"
"undefined","undefined","undefined","undefined","black","no","legacy","0","uniform","undefined","undefined","undefined","44","44","89","44","44","NA","44","44","0","0","0","44","44","0","44","0","NA","44","0","Fri 26 Jul 2019 12:00:52 PM PDT","500","1000","The main experiment item","yes","NA","ABX_v3.osexp","/home/ubuntu/Desktop/panara","yes","no","mono","no","18","no","white","no","yes","768","44","44","/home/ubuntu/Desktop/panara/subject-114.csv","Jazzy James","3.1.3","5.2.4.wav","5.2.4.wav","5.2.2.wav","0","1","NA","1","NA","2977","NA","2977","NA","194594","return","2","1024","2","48000","-16","experiment","5.2.2.wav","5.2.4.wav","5.2.4.wav","114","even","520656","523157","522657","521902","NA","NA","519655","523875","1054","NA","NA","519653","526853","NA","519652","195652","NA","519656","1057","New experiment","NA","0","0","0","yes","1024"
"undefined","undefined","undefined","undefined","black","no","legacy","0","uniform","undefined","undefined","undefined","45","45","91","45","45","NA","45","45","0","0","0","45","45","0","45","0","NA","45","0","Fri 26 Jul 2019 12:00:52 PM PDT","500","1000","The main experiment item","yes","NA","ABX_v3.osexp","/home/ubuntu/Desktop/panara","no","no","mono","no","18","no","white","no","yes","768","45","45","/home/ubuntu/Desktop/panara/subject-114.csv","Jazzy James","3.1.3","3.2.2.wav","3.2.2.wav","3.2.4.wav","0","1","NA","1","NA","3164","NA","3164","NA","194594","return","2","1024","2","48000","-16","experiment","3.2.2.wav","3.2.4.wav","3.2.2.wav","114","even","528004","530564","530064","529284","NA","NA","527003","531319","1054","NA","NA","527001","534483","NA","527001","195652","NA","527004","1057","New experiment","NA","0","0","0","yes","1024"
"undefined","undefined","undefined","undefined","black","no","legacy","0","uniform","undefined","undefined","undefined","46","46","93","46","46","NA","46","46","0","0","0","46","46","0","46","0","NA","46","0","Fri 26 Jul 2019 12:00:52 PM PDT","500","1000","The main experiment item","yes","NA","ABX_v3.osexp","/home/ubuntu/Desktop/panara","yes","no","mono","no","18","no","white","no","yes","768","46","46","/home/ubuntu/Desktop/panara/subject-114.csv","Jazzy James","3.1.3","1.2.5.wav","1.2.3.wav","1.2.3.wav","0","1","NA","1","NA","1808","NA","1808","NA","194594","return","2","1024","2","48000","-16","experiment","1.2.3.wav","1.2.5.wav","1.2.3.wav","114","even","535658","538230","537730","536960","NA","NA","534658","539018","1054","NA","NA","534655","540827","NA","534655","195652","NA","534658","1057","New experiment","NA","0","0","0","yes","1024"
"undefined","undefined","undefined","undefined","black","no","legacy","0","uniform","undefined","undefined","undefined","47","47","95","47","47","NA","47","47","0","0","0","47","47","0","47","0","NA","47","0","Fri 26 Jul 2019 12:00:52 PM PDT","500","1000","The main experiment item","yes","NA","ABX_v3.osexp","/home/ubuntu/Desktop/panara","yes","no","mono","no","18","no","white","no","yes","768","47","47","/home/ubuntu/Desktop/panara/subject-114.csv","Jazzy James","3.1.3","4.2.5.wav","4.2.3.wav","4.2.3.wav","0","1","NA","1","NA","2498","NA","2498","NA","194594","return","2","1024","2","48000","-16","experiment","4.2.3.wav","4.2.5.wav","4.2.3.wav","114","even","542003","544514","544014","543270","NA","NA","541002","545272","1054","NA","NA","541000","547770","NA","541000","195652","NA","541003","1057","New experiment","NA","0","0","0","yes","1024"
"undefined","undefined","undefined","undefined","black","no","legacy","0","uniform","undefined","undefined","undefined","48","48","97","48","48","NA","48","48","0","0","0","48","48","0","48","0","NA","48","0","Fri 26 Jul 2019 12:00:52 PM PDT","500","1000","The main experiment item","yes","NA","ABX_v3.osexp","/home/ubuntu/Desktop/panara","no","no","mono","no","18","no","white","no","yes","768","48","48","/home/ubuntu/Desktop/panara/subject-114.csv","Jazzy James","3.1.3","2.2.2.wav","2.2.4.wav","2.2.4.wav","0","0","NA","0","NA","1470","NA","1470","NA","194594","return","2","1024","2","48000","-16","experiment","2.2.2.wav","2.2.4.wav","2.2.4.wav","114","even","548984","551466","550966","550240","NA","NA","547983","552179","1054","NA","NA","547981","553650","NA","547981","195652","NA","547984","1057","New experiment","NA","0","0","0","yes","1024"
"undefined","undefined","undefined","undefined","black","no","legacy","0","uniform","undefined","undefined","undefined","49","49","99","49","49","NA","49","49","0","0","0","49","49","0","49","0","NA","49","0","Fri 26 Jul 2019 12:00:52 PM PDT","500","1000","The main experiment item","yes","NA","ABX_v3.osexp","/home/ubuntu/Desktop/panara","no","no","mono","no","18","no","white","no","yes","768","49","49","/home/ubuntu/Desktop/panara/subject-114.csv","Jazzy James","3.1.3","1.2.3.wav","1.2.5.wav","1.2.5.wav","0","0","NA","0","NA","1277","NA","1277","NA","194594","return","2","1024","2","48000","-16","experiment","1.2.3.wav","1.2.5.wav","1.2.5.wav","114","even","554815","557369","556869","556093","NA","NA","553815","558156","1054","NA","NA","553813","559433","NA","553813","195652","NA","553815","1057","New experiment","NA","0","0","0","yes","1024"
"undefined","undefined","undefined","undefined","black","no","legacy","0","uniform","undefined","undefined","undefined","50","50","101","50","50","NA","50","50","0","0","0","50","50","0","50","0","NA","50","0","Fri 26 Jul 2019 12:00:52 PM PDT","500","1000","The main experiment item","yes","NA","ABX_v3.osexp","/home/ubuntu/Desktop/panara","yes","no","mono","no","18","no","white","no","yes","768","50","50","/home/ubuntu/Desktop/panara/subject-114.csv","Jazzy James","3.1.3","5.2.3.wav","5.2.3.wav","5.2.1.wav","0","1","return","1","NA","4754","6533","4754","NA","194594","return","2","1024","2","48000","-16","experiment","5.2.1.wav","5.2.3.wav","5.2.3.wav","114","even","567155","569576","569076","568351","559619","NA","566155","570294","1054","NA","NA","559617","575048","NA","559616","195652","NA","566155","1057","New experiment","NA","0","0","0","yes","1024"
"undefined","undefined","undefined","undefined","black","no","legacy","0","uniform","undefined","undefined","undefined","51","51","103","51","51","NA","51","51","0","0","0","51","51","0","51","0","NA","51","0","Fri 26 Jul 2019 12:00:52 PM PDT","500","1000","The main experiment item","yes","NA","ABX_v3.osexp","/home/ubuntu/Desktop/panara","no","no","mono","no","18","no","white","no","yes","768","51","51","/home/ubuntu/Desktop/panara/subject-114.csv","Jazzy James","3.1.3","2.2.1.wav","2.2.1.wav","2.2.3.wav","0","1","return","1","NA","3018","6533","3018","NA","194594","return","2","1024","2","48000","-16","experiment","2.2.1.wav","2.2.3.wav","2.2.1.wav","114","even","576221","578654","578154","577444","559619","NA","575221","579397","1054","NA","NA","575218","582416","NA","575218","195652","NA","575221","1057","New experiment","NA","0","0","0","yes","1024"
"undefined","undefined","undefined","undefined","black","no","legacy","0","uniform","undefined","undefined","undefined","52","52","105","52","52","NA","52","52","0","0","0","52","52","0","52","0","NA","52","0","Fri 26 Jul 2019 12:00:52 PM PDT","500","1000","The main experiment item","yes","NA","ABX_v3.osexp","/home/ubuntu/Desktop/panara","no","no","mono","no","18","no","white","no","yes","768","52","52","/home/ubuntu/Desktop/panara/subject-114.csv","Jazzy James","3.1.3","4.2.2.wav","4.2.2.wav","4.2.4.wav","0","0","return","0","NA","2200","6533","2200","NA","194594","return","2","1024","2","48000","-16","experiment","4.2.2.wav","4.2.4.wav","4.2.2.wav","114","even","583604","586060","585560","584845","559619","NA","582604","586784","1054","NA","NA","582602","588984","NA","582602","195652","NA","582604","1057","New experiment","NA","0","0","0","yes","1024"
"undefined","undefined","undefined","undefined","black","no","legacy","0","uniform","undefined","undefined","undefined","53","53","107","53","53","NA","53","53","0","0","0","53","53","0","53","0","NA","53","0","Fri 26 Jul 2019 12:00:52 PM PDT","500","1000","The main experiment item","yes","NA","ABX_v3.osexp","/home/ubuntu/Desktop/panara","yes","no","mono","no","18","no","white","no","yes","768","53","53","/home/ubuntu/Desktop/panara/subject-114.csv","Jazzy James","3.1.3","4.2.4.wav","4.2.4.wav","4.2.2.wav","0","0","return","0","NA","1235","6533","1235","NA","194594","return","2","1024","2","48000","-16","experiment","4.2.2.wav","4.2.4.wav","4.2.4.wav","114","even","590125","592589","592089","591378","559619","NA","589125","593307","1054","NA","NA","589123","594543","NA","589123","195652","NA","589125","1057","New experiment","NA","0","0","0","yes","1024"
"undefined","undefined","undefined","undefined","black","no","legacy","0","uniform","undefined","undefined","undefined","54","54","109","54","54","NA","54","54","0","0","0","54","54","0","54","0","NA","54","0","Fri 26 Jul 2019 12:00:52 PM PDT","500","1000","The main experiment item","yes","NA","ABX_v3.osexp","/home/ubuntu/Desktop/panara","no","no","mono","no","18","no","white","no","yes","768","0","53","/home/ubuntu/Desktop/panara/subject-114.csv","Jazzy James","3.1.3","3.2.2.wav","1.2.2.wav","1.2.4.wav","0","0","return","0","NA","2082","6533","2082","NA","194594","return","2","1024","2","48000","-16","experiment","3.2.2.wav","1.2.4.wav","1.2.2.wav","114","even","595728","598300","597800","597009","559619","NA","594728","599044","1054","NA","NA","594726","601126","594630","594726","195652","NA","594728","1057","New experiment","NA","0","0","0","yes","1024"
"undefined","undefined","undefined","undefined","black","no","legacy","0","uniform","undefined","undefined","undefined","55","55","111","55","55","NA","55","55","0","0","0","55","55","0","55","0","NA","55","0","Fri 26 Jul 2019 12:00:52 PM PDT","500","1000","The main experiment item","yes","NA","ABX_v3.osexp","/home/ubuntu/Desktop/panara","no","no","mono","no","18","no","white","no","yes","768","1","53","/home/ubuntu/Desktop/panara/subject-114.csv","Jazzy James","3.1.3","2.1.1.wav","2.1.3.wav","2.2.3.wav","0","0","return","0","NA","1639","6533","1639","NA","194594","return","2","1024","2","48000","-16","experiment","2.1.1.wav","2.2.3.wav","2.1.3.wav","114","even","602291","604819","604319","603553","559619","NA","601291","605558","1054","NA","NA","601288","607198","594630","601288","195652","NA","601291","1057","New experiment","NA","0","0","0","yes","1024"
"undefined","undefined","undefined","undefined","black","no","legacy","0","uniform","undefined","undefined","undefined","56","56","113","56","56","NA","56","56","0","0","0","56","56","0","56","0","NA","56","0","Fri 26 Jul 2019 12:00:52 PM PDT","500","1000","The main experiment item","yes","NA","ABX_v3.osexp","/home/ubuntu/Desktop/panara","no","no","mono","no","18","no","white","no","yes","768","2","53","/home/ubuntu/Desktop/panara/subject-114.csv","Jazzy James","3.1.3","4.2.3.wav","4.2.5.wav","2.2.5.wav","0","1","return","1","NA","2045","6533","2045","NA","194594","return","2","1024","2","48000","-16","experiment","4.2.3.wav","2.2.5.wav","4.2.5.wav","114","even","608451","610934","610434","609678","559619","NA","607451","611656","1054","NA","NA","607448","613701","594630","607448","195652","NA","607451","1057","New experiment","NA","0","0","0","yes","1024"
"undefined","undefined","undefined","undefined","black","no","legacy","0","uniform","undefined","undefined","undefined","57","57","115","57","57","NA","57","57","0","0","0","57","57","0","57","0","NA","57","0","Fri 26 Jul 2019 12:00:52 PM PDT","500","1000","The main experiment item","yes","NA","ABX_v3.osexp","/home/ubuntu/Desktop/panara","no","no","mono","no","18","no","white","no","yes","768","3","53","/home/ubuntu/Desktop/panara/subject-114.csv","Jazzy James","3.1.3","3.1.2.wav","3.1.4.wav","4.1.4.wav","0","1","return","1","NA","3093","6533","3093","NA","194594","return","2","1024","2","48000","-16","experiment","3.1.2.wav","4.1.4.wav","3.1.4.wav","114","even","614916","617487","616987","616210","559619","NA","613916","618239","1054","NA","NA","613913","621333","594630","613913","195652","NA","613916","1057","New experiment","NA","0","0","0","yes","1024"
"undefined","undefined","undefined","undefined","black","no","legacy","0","uniform","undefined","undefined","undefined","58","58","117","58","58","NA","58","58","0","0","0","58","58","0","58","0","NA","58","0","Fri 26 Jul 2019 12:00:52 PM PDT","500","1000","The main experiment item","yes","NA","ABX_v3.osexp","/home/ubuntu/Desktop/panara","no","no","mono","no","18","no","white","no","yes","768","4","53","/home/ubuntu/Desktop/panara/subject-114.csv","Jazzy James","3.1.3","4.1.2.wav","4.2.2.wav","4.2.4.wav","0","1","return","1","NA","2324","6533","2324","NA","194594","return","2","1024","2","48000","-16","experiment","4.1.2.wav","4.2.4.wav","4.2.2.wav","114","even","622492","624932","624432","623707","559619","NA","621492","625641","1054","NA","NA","621490","627965","594630","621490","195652","NA","621492","1057","New experiment","NA","0","0","0","yes","1024"
"undefined","undefined","undefined","undefined","black","no","legacy","0","uniform","undefined","undefined","undefined","59","59","119","59","59","NA","59","59","0","0","0","59","59","0","59","0","NA","59","0","Fri 26 Jul 2019 12:00:52 PM PDT","500","1000","The main experiment item","yes","NA","ABX_v3.osexp","/home/ubuntu/Desktop/panara","no","no","mono","no","18","no","white","no","yes","768","5","53","/home/ubuntu/Desktop/panara/subject-114.csv","Jazzy James","3.1.3","3.2.3.wav","1.2.3.wav","1.2.5.wav","0","0","return","0","NA","1567","6533","1567","NA","194594","return","2","1024","2","48000","-16","experiment","3.2.3.wav","1.2.5.wav","1.2.3.wav","114","even","629142","631650","631150","630375","559619","NA","628142","632436","1054","NA","NA","628139","634004","594630","628139","195652","NA","628142","1057","New experiment","NA","0","0","0","yes","1024"
"undefined","undefined","undefined","undefined","black","no","legacy","0","uniform","undefined","undefined","undefined","60","60","121","60","60","NA","60","60","0","0","0","60","60","0","60","0","NA","60","0","Fri 26 Jul 2019 12:00:52 PM PDT","500","1000","The main experiment item","yes","NA","ABX_v3.osexp","/home/ubuntu/Desktop/panara","yes","no","mono","no","18","no","white","no","yes","768","6","53","/home/ubuntu/Desktop/panara/subject-114.csv","Jazzy James","3.1.3","1.1.4.wav","3.1.4.wav","3.1.2.wav","0","0","return","0","NA","2971","6533","2971","NA","194594","return","2","1024","2","48000","-16","experiment","3.1.2.wav","1.1.4.wav","3.1.4.wav","114","even","635208","637774","637274","636472","559619","NA","634207","638568","1054","NA","NA","634204","641539","594630","634204","195652","NA","634207","1057","New experiment","NA","0","0","0","yes","1024"
"undefined","undefined","undefined","undefined","black","no","legacy","0","uniform","undefined","undefined","undefined","61","61","123","61","61","NA","61","61","0","0","0","61","61","0","61","0","NA","61","0","Fri 26 Jul 2019 12:00:52 PM PDT","500","1000","The main experiment item","yes","NA","ABX_v3.osexp","/home/ubuntu/Desktop/panara","yes","no","mono","no","18","no","white","no","yes","768","7","53","/home/ubuntu/Desktop/panara/subject-114.csv","Jazzy James","3.1.3","2.1.3.wav","4.1.3.wav","4.1.1.wav","0","0","return","0","NA","1393","6533","1393","NA","194594","return","2","1024","2","48000","-16","experiment","4.1.1.wav","2.1.3.wav","4.1.3.wav","114","even","642699","645154","644654","643937","559619","NA","641699","645873","1054","NA","NA","641696","647267","594630","641696","195652","NA","641699","1057","New experiment","NA","0","0","0","yes","1024"
"undefined","undefined","undefined","undefined","black","no","legacy","0","uniform","undefined","undefined","undefined","62","62","125","62","62","NA","62","62","0","0","0","62","62","0","62","0","NA","62","0","Fri 26 Jul 2019 12:00:52 PM PDT","500","1000","The main experiment item","yes","NA","ABX_v3.osexp","/home/ubuntu/Desktop/panara","no","no","mono","no","18","no","white","no","yes","768","8","53","/home/ubuntu/Desktop/panara/subject-114.csv","Jazzy James","3.1.3","2.1.3.wav","1.1.3.wav","1.1.5.wav","0","1","return","1","NA","2184","6533","2184","NA","194594","return","2","1024","2","48000","-16","experiment","2.1.3.wav","1.1.5.wav","1.1.3.wav","114","even","648469","651011","650511","649720","559619","NA","647469","651803","1054","NA","NA","647466","653987","594630","647466","195652","NA","647469","1057","New experiment","NA","0","0","0","yes","1024"
"undefined","undefined","undefined","undefined","black","no","legacy","0","uniform","undefined","undefined","undefined","63","63","127","63","63","NA","63","63","0","0","0","63","63","0","63","0","NA","63","0","Fri 26 Jul 2019 12:00:52 PM PDT","500","1000","The main experiment item","yes","NA","ABX_v3.osexp","/home/ubuntu/Desktop/panara","yes","no","mono","no","18","no","white","no","yes","768","9","53","/home/ubuntu/Desktop/panara/subject-114.csv","Jazzy James","3.1.3","4.1.3.wav","4.2.3.wav","4.2.1.wav","0","1","return","1","NA","1424","6533","1424","NA","194594","return","2","1024","2","48000","-16","experiment","4.2.1.wav","4.1.3.wav","4.2.3.wav","114","even","655167","657649","657149","656414","559619","NA","654167","658369","1054","NA","NA","654164","659794","594630","654164","195652","NA","654167","1057","New experiment","NA","0","0","0","yes","1024"
"undefined","undefined","undefined","undefined","black","no","legacy","0","uniform","undefined","undefined","undefined","64","64","129","64","64","NA","64","64","0","0","0","64","64","0","64","0","NA","64","0","Fri 26 Jul 2019 12:00:52 PM PDT","500","1000","The main experiment item","yes","NA","ABX_v3.osexp","/home/ubuntu/Desktop/panara","yes","no","mono","no","18","no","white","no","yes","768","10","53","/home/ubuntu/Desktop/panara/subject-114.csv","Jazzy James","3.1.3","3.2.5.wav","3.2.3.wav","4.2.3.wav","0","1","return","1","NA","2144","6533","2144","NA","194594","return","2","1024","2","48000","-16","experiment","4.2.3.wav","3.2.5.wav","3.2.3.wav","114","even","660986","663510","663010","662267","559619","NA","659986","664257","1054","NA","NA","659983","666402","594630","659983","195652","NA","659986","1057","New experiment","NA","0","0","0","yes","1024"
"undefined","undefined","undefined","undefined","black","no","legacy","0","uniform","undefined","undefined","undefined","65","65","131","65","65","NA","65","65","0","0","0","65","65","0","65","0","NA","65","0","Fri 26 Jul 2019 12:00:52 PM PDT","500","1000","The main experiment item","yes","NA","ABX_v3.osexp","/home/ubuntu/Desktop/panara","yes","no","mono","no","18","no","white","no","yes","768","11","53","/home/ubuntu/Desktop/panara/subject-114.csv","Jazzy James","3.1.3","2.2.3.wav","2.2.1.wav","1.2.1.wav","0","1","return","1","NA","2059","6533","2059","NA","194594","return","2","1024","2","48000","-16","experiment","1.2.1.wav","2.2.3.wav","2.2.1.wav","114","even","667613","670102","669602","668880","559619","NA","666612","670878","1054","NA","NA","666609","672938","594630","666609","195652","NA","666613","1057","New experiment","NA","0","0","0","yes","1024"
"undefined","undefined","undefined","undefined","black","no","legacy","0","uniform","undefined","undefined","undefined","66","66","133","66","66","NA","66","66","0","0","0","66","66","0","66","0","NA","66","0","Fri 26 Jul 2019 12:00:52 PM PDT","500","1000","The main experiment item","yes","NA","ABX_v3.osexp","/home/ubuntu/Desktop/panara","yes","no","mono","no","18","no","white","no","yes","768","12","53","/home/ubuntu/Desktop/panara/subject-114.csv","Jazzy James","3.1.3","3.1.4.wav","4.1.4.wav","4.1.2.wav","0","0","return","0","NA","3823","6533","3823","NA","194594","return","2","1024","2","48000","-16","experiment","4.1.2.wav","3.1.4.wav","4.1.4.wav","114","even","674155","676651","676151","675430","559619","NA","673154","677369","1054","NA","NA","673152","681192","594630","673152","195652","NA","673155","1057","New experiment","NA","0","0","0","yes","1024"
"undefined","undefined","undefined","undefined","black","no","legacy","0","uniform","undefined","undefined","undefined","67","67","135","67","67","NA","67","67","0","0","0","67","67","0","67","0","NA","67","0","Fri 26 Jul 2019 12:00:52 PM PDT","500","1000","The main experiment item","yes","NA","ABX_v3.osexp","/home/ubuntu/Desktop/panara","no","no","mono","no","18","no","white","no","yes","768","13","53","/home/ubuntu/Desktop/panara/subject-114.csv","Jazzy James","3.1.3","1.1.1.wav","1.1.3.wav","1.2.3.wav","0","1","return","1","NA","4980","6533","4980","NA","194594","return","2","1024","2","48000","-16","experiment","1.1.1.wav","1.2.3.wav","1.1.3.wav","114","even","682425","685020","684520","683711","559619","NA","681425","685795","1054","NA","NA","681422","690776","594630","681422","195652","NA","681425","1057","New experiment","NA","0","0","0","yes","1024"
"undefined","undefined","undefined","undefined","black","no","legacy","0","uniform","undefined","undefined","undefined","68","68","137","68","68","NA","68","68","0","0","0","68","68","0","68","0","NA","68","0","Fri 26 Jul 2019 12:00:52 PM PDT","500","1000","The main experiment item","yes","NA","ABX_v3.osexp","/home/ubuntu/Desktop/panara","yes","no","mono","no","18","no","white","no","yes","768","14","53","/home/ubuntu/Desktop/panara/subject-114.csv","Jazzy James","3.1.3","3.2.3.wav","3.2.1.wav","1.2.1.wav","0","1","return","1","NA","1586","6533","1586","NA","194594","return","2","1024","2","48000","-16","experiment","1.2.1.wav","3.2.3.wav","3.2.1.wav","114","even","691958","694471","693971","693219","559619","NA","690958","695245","1054","NA","NA","690956","696831","594630","690956","195652","NA","690958","1057","New experiment","NA","0","0","0","yes","1024"
"undefined","undefined","undefined","undefined","black","no","legacy","0","uniform","undefined","undefined","undefined","69","69","139","69","69","NA","69","69","0","0","0","69","69","0","69","0","NA","69","0","Fri 26 Jul 2019 12:00:52 PM PDT","500","1000","The main experiment item","yes","NA","ABX_v3.osexp","/home/ubuntu/Desktop/panara","no","no","mono","no","18","no","white","no","yes","768","15","53","/home/ubuntu/Desktop/panara/subject-114.csv","Jazzy James","3.1.3","3.1.2.wav","4.1.2.wav","4.1.4.wav","0","1","return","1","NA","1042","6533","1042","NA","194594","return","2","1024","2","48000","-16","experiment","3.1.2.wav","4.1.4.wav","4.1.2.wav","114","even","698022","700521","700021","699298","559619","NA","697022","701276","1054","NA","NA","697019","702319","594630","697019","195652","NA","697022","1057","New experiment","NA","0","0","0","yes","1024"
"undefined","undefined","undefined","undefined","black","no","legacy","0","uniform","undefined","undefined","undefined","70","70","141","70","70","NA","70","70","0","0","0","70","70","0","70","0","NA","70","0","Fri 26 Jul 2019 12:00:52 PM PDT","500","1000","The main experiment item","yes","NA","ABX_v3.osexp","/home/ubuntu/Desktop/panara","yes","no","mono","no","18","no","white","no","yes","768","16","53","/home/ubuntu/Desktop/panara/subject-114.csv","Jazzy James","3.1.3","2.1.5.wav","2.1.3.wav","2.2.3.wav","0","1","return","1","NA","1401","6533","1401","NA","194594","return","2","1024","2","48000","-16","experiment","2.2.3.wav","2.1.5.wav","2.1.3.wav","114","even","703478","705981","705481","704731","559619","NA","702478","706693","1054","NA","NA","702475","708094","594630","702475","195652","NA","702478","1057","New experiment","NA","0","0","0","yes","1024"
"undefined","undefined","undefined","undefined","black","no","legacy","0","uniform","undefined","undefined","undefined","71","71","143","71","71","NA","71","71","0","0","0","71","71","0","71","0","NA","71","0","Fri 26 Jul 2019 12:00:52 PM PDT","500","1000","The main experiment item","yes","NA","ABX_v3.osexp","/home/ubuntu/Desktop/panara","no","no","mono","no","18","no","white","no","yes","768","17","53","/home/ubuntu/Desktop/panara/subject-114.csv","Jazzy James","3.1.3","1.1.2.wav","1.2.2.wav","1.2.4.wav","0","1","return","1","NA","1296","6533","1296","NA","194594","return","2","1024","2","48000","-16","experiment","1.1.2.wav","1.2.4.wav","1.2.2.wav","114","even","709246","711821","711321","710541","559619","NA","708245","712566","1054","NA","NA","708243","713863","594630","708243","195652","NA","708246","1057","New experiment","NA","0","0","0","yes","1024"
"undefined","undefined","undefined","undefined","black","no","legacy","0","uniform","undefined","undefined","undefined","72","72","145","72","72","NA","72","72","0","0","0","72","72","0","72","0","NA","72","0","Fri 26 Jul 2019 12:00:52 PM PDT","500","1000","The main experiment item","yes","NA","ABX_v3.osexp","/home/ubuntu/Desktop/panara","yes","no","mono","no","18","no","white","no","yes","768","18","53","/home/ubuntu/Desktop/panara/subject-114.csv","Jazzy James","3.1.3","2.1.3.wav","2.1.1.wav","4.1.1.wav","0","1","return","1","NA","1211","6533","1211","NA","194594","return","2","1024","2","48000","-16","experiment","4.1.1.wav","2.1.3.wav","2.1.1.wav","114","even","715039","717543","717043","716302","559619","NA","714039","718290","1054","NA","NA","714036","719502","594630","714036","195652","NA","714039","1057","New experiment","NA","0","0","0","yes","1024"
"undefined","undefined","undefined","undefined","black","no","legacy","0","uniform","undefined","undefined","undefined","73","73","147","73","73","NA","73","73","0","0","0","73","73","0","73","0","NA","73","0","Fri 26 Jul 2019 12:00:52 PM PDT","500","1000","The main experiment item","yes","NA","ABX_v3.osexp","/home/ubuntu/Desktop/panara","yes","no","mono","no","18","no","white","no","yes","768","19","53","/home/ubuntu/Desktop/panara/subject-114.csv","Jazzy James","3.1.3","2.2.4.wav","2.2.2.wav","1.2.2.wav","0","1","return","1","NA","1235","6533","1235","NA","194594","return","2","1024","2","48000","-16","experiment","1.2.2.wav","2.2.4.wav","2.2.2.wav","114","even","720690","723170","722670","721916","559619","NA","719690","723954","1054","NA","NA","719688","725189","594630","719688","195652","NA","719690","1057","New experiment","NA","0","0","0","yes","1024"
"undefined","undefined","undefined","undefined","black","no","legacy","0","uniform","undefined","undefined","undefined","74","74","149","74","74","NA","74","74","0","0","0","74","74","0","74","0","NA","74","0","Fri 26 Jul 2019 12:00:52 PM PDT","500","1000","The main experiment item","yes","NA","ABX_v3.osexp","/home/ubuntu/Desktop/panara","no","no","mono","no","18","no","white","no","yes","768","20","53","/home/ubuntu/Desktop/panara/subject-114.csv","Jazzy James","3.1.3","4.1.3.wav","4.2.3.wav","4.2.5.wav","0","0","return","0","NA","2581","6533","2581","NA","194594","return","2","1024","2","48000","-16","experiment","4.1.3.wav","4.2.5.wav","4.2.3.wav","114","even","726358","728857","728357","727605","559619","NA","725358","729583","1054","NA","NA","725356","732165","594630","725356","195652","NA","725358","1057","New experiment","NA","0","0","0","yes","1024"
"undefined","undefined","undefined","undefined","black","no","legacy","0","uniform","undefined","undefined","undefined","75","75","151","75","75","NA","75","75","0","0","0","75","75","0","75","0","NA","75","0","Fri 26 Jul 2019 12:00:52 PM PDT","500","1000","The main experiment item","yes","NA","ABX_v3.osexp","/home/ubuntu/Desktop/panara","yes","no","mono","no","18","no","white","no","yes","768","21","53","/home/ubuntu/Desktop/panara/subject-114.csv","Jazzy James","3.1.3","2.2.5.wav","2.2.3.wav","1.2.3.wav","0","1","return","1","NA","1235","6533","1235","NA","194594","return","2","1024","2","48000","-16","experiment","1.2.3.wav","2.2.5.wav","2.2.3.wav","114","even","733359","735825","735325","734602","559619","NA","732359","736601","1054","NA","NA","732357","737836","594630","732357","195652","NA","732359","1057","New experiment","NA","0","0","0","yes","1024"
"undefined","undefined","undefined","undefined","black","no","legacy","0","uniform","undefined","undefined","undefined","76","76","153","76","76","NA","76","76","0","0","0","76","76","0","76","0","NA","76","0","Fri 26 Jul 2019 12:00:52 PM PDT","500","1000","The main experiment item","yes","NA","ABX_v3.osexp","/home/ubuntu/Desktop/panara","no","no","mono","no","18","no","white","no","yes","768","22","53","/home/ubuntu/Desktop/panara/subject-114.csv","Jazzy James","3.1.3","1.2.2.wav","1.2.4.wav","3.2.4.wav","0","1","return","1","NA","1424","6533","1424","NA","194594","return","2","1024","2","48000","-16","experiment","1.2.2.wav","3.2.4.wav","1.2.4.wav","114","even","739033","741578","741078","740326","559619","NA","738032","742331","1054","NA","NA","738029","743756","594630","738029","195652","NA","738032","1057","New experiment","NA","0","0","0","yes","1024"
"undefined","undefined","undefined","undefined","black","no","legacy","0","uniform","undefined","undefined","undefined","77","77","155","77","77","NA","77","77","0","0","0","77","77","0","77","0","NA","77","0","Fri 26 Jul 2019 12:00:52 PM PDT","500","1000","The main experiment item","yes","NA","ABX_v3.osexp","/home/ubuntu/Desktop/panara","yes","no","mono","no","18","no","white","no","yes","768","23","53","/home/ubuntu/Desktop/panara/subject-114.csv","Jazzy James","3.1.3","2.1.3.wav","2.2.3.wav","2.2.1.wav","0","0","return","0","NA","2080","6533","2080","NA","194594","return","2","1024","2","48000","-16","experiment","2.2.1.wav","2.1.3.wav","2.2.3.wav","114","even","744941","747409","746909","746186","559619","NA","743941","748163","1054","NA","NA","743938","750243","594630","743938","195652","NA","743941","1057","New experiment","NA","0","0","0","yes","1024"
"undefined","undefined","undefined","undefined","black","no","legacy","0","uniform","undefined","undefined","undefined","78","78","157","78","78","NA","78","78","0","0","0","78","78","0","78","0","NA","78","0","Fri 26 Jul 2019 12:00:52 PM PDT","500","1000","The main experiment item","yes","NA","ABX_v3.osexp","/home/ubuntu/Desktop/panara","no","no","mono","no","18","no","white","no","yes","768","24","53","/home/ubuntu/Desktop/panara/subject-114.csv","Jazzy James","3.1.3","3.2.1.wav","3.1.1.wav","3.1.3.wav","0","0","return","0","NA","2037","6533","2037","NA","194594","return","2","1024","2","48000","-16","experiment","3.2.1.wav","3.1.3.wav","3.1.1.wav","114","even","751476","753978","753478","752727","559619","NA","750475","754725","1054","NA","NA","750473","756763","594630","750472","195652","NA","750476","1057","New experiment","NA","0","0","0","yes","1024"
"undefined","undefined","undefined","undefined","black","no","legacy","0","uniform","undefined","undefined","undefined","79","79","159","79","79","NA","79","79","0","0","0","79","79","0","79","0","NA","79","0","Fri 26 Jul 2019 12:00:52 PM PDT","500","1000","The main experiment item","yes","NA","ABX_v3.osexp","/home/ubuntu/Desktop/panara","no","no","mono","no","18","no","white","no","yes","768","25","53","/home/ubuntu/Desktop/panara/subject-114.csv","Jazzy James","3.1.3","4.2.1.wav","2.2.1.wav","2.2.3.wav","0","0","return","0","NA","1919","6533","1919","NA","194594","return","2","1024","2","48000","-16","experiment","4.2.1.wav","2.2.3.wav","2.2.1.wav","114","even","757948","760421","759921","759198","559619","NA","756948","761139","1054","NA","NA","756945","763058","594630","756945","195652","NA","756948","1057","New experiment","NA","0","0","0","yes","1024"
"undefined","undefined","undefined","undefined","black","no","legacy","0","uniform","undefined","undefined","undefined","80","80","161","80","80","NA","80","80","0","0","0","80","80","0","80","0","NA","80","0","Fri 26 Jul 2019 12:00:52 PM PDT","500","1000","The main experiment item","yes","NA","ABX_v3.osexp","/home/ubuntu/Desktop/panara","yes","no","mono","no","18","no","white","no","yes","768","26","53","/home/ubuntu/Desktop/panara/subject-114.csv","Jazzy James","3.1.3","2.1.4.wav","2.1.2.wav","1.1.2.wav","0","1","return","1","NA","2363","6533","2363","NA","194594","return","2","1024","2","48000","-16","experiment","1.1.2.wav","2.1.4.wav","2.1.2.wav","114","even","764252","766771","766271","765518","559619","NA","763252","767567","1054","NA","NA","763249","769931","594630","763249","195652","NA","763252","1057","New experiment","NA","0","0","0","yes","1024"
"undefined","undefined","undefined","undefined","black","no","legacy","0","uniform","undefined","undefined","undefined","81","81","163","81","81","NA","81","81","0","0","0","81","81","0","81","0","NA","81","0","Fri 26 Jul 2019 12:00:52 PM PDT","500","1000","The main experiment item","yes","NA","ABX_v3.osexp","/home/ubuntu/Desktop/panara","yes","no","mono","no","18","no","white","no","yes","768","27","53","/home/ubuntu/Desktop/panara/subject-114.csv","Jazzy James","3.1.3","2.2.3.wav","2.2.1.wav","2.1.1.wav","0","1","return","1","NA","1304","6533","1304","NA","194594","return","2","1024","2","48000","-16","experiment","2.1.1.wav","2.2.3.wav","2.2.1.wav","114","even","771112","773582","773082","772360","559619","NA","770112","774337","1054","NA","NA","770109","775641","594630","770109","195652","NA","770112","1057","New experiment","NA","0","0","0","yes","1024"
"undefined","undefined","undefined","undefined","black","no","legacy","0","uniform","undefined","undefined","undefined","82","82","165","82","82","NA","82","82","0","0","0","82","82","0","82","0","NA","82","0","Fri 26 Jul 2019 12:00:52 PM PDT","500","1000","The main experiment item","yes","NA","ABX_v3.osexp","/home/ubuntu/Desktop/panara","no","no","mono","no","18","no","white","no","yes","768","28","53","/home/ubuntu/Desktop/panara/subject-114.csv","Jazzy James","3.1.3","2.1.1.wav","1.1.1.wav","1.1.3.wav","0","0","return","0","NA","1346","6533","1346","NA","194594","return","2","1024","2","48000","-16","experiment","2.1.1.wav","1.1.3.wav","1.1.1.wav","114","even","776835","779400","778900","778090","559619","NA","775835","780182","1054","NA","NA","775832","781529","594630","775832","195652","NA","775835","1057","New experiment","NA","0","0","0","yes","1024"
"undefined","undefined","undefined","undefined","black","no","legacy","0","uniform","undefined","undefined","undefined","83","83","167","83","83","NA","83","83","0","0","0","83","83","0","83","0","NA","83","0","Fri 26 Jul 2019 12:00:52 PM PDT","500","1000","The main experiment item","yes","NA","ABX_v3.osexp","/home/ubuntu/Desktop/panara","yes","no","mono","no","18","no","white","no","yes","768","29","53","/home/ubuntu/Desktop/panara/subject-114.csv","Jazzy James","3.1.3","2.1.5.wav","1.1.5.wav","1.1.3.wav","0","0","return","0","NA","1906","6533","1906","NA","194594","return","2","1024","2","48000","-16","experiment","1.1.3.wav","2.1.5.wav","1.1.5.wav","114","even","782749","785566","785066","784286","559619","NA","781749","786382","1054","NA","NA","781746","788288","594630","781746","195652","NA","781749","1057","New experiment","NA","0","0","0","yes","1024"
"undefined","undefined","undefined","undefined","black","no","legacy","0","uniform","undefined","undefined","undefined","84","84","169","84","84","NA","84","84","0","0","0","84","84","0","84","0","NA","84","0","Fri 26 Jul 2019 12:00:52 PM PDT","500","1000","The main experiment item","yes","NA","ABX_v3.osexp","/home/ubuntu/Desktop/panara","yes","no","mono","no","18","no","white","no","yes","768","30","53","/home/ubuntu/Desktop/panara/subject-114.csv","Jazzy James","3.1.3","3.1.5.wav","1.1.5.wav","1.1.3.wav","0","0","return","0","NA","1479","6533","1479","NA","194594","return","2","1024","2","48000","-16","experiment","1.1.3.wav","3.1.5.wav","1.1.5.wav","114","even","789505","792073","791573","790783","559619","NA","788504","792848","1054","NA","NA","788501","794328","594630","788501","195652","NA","788505","1057","New experiment","NA","0","0","0","yes","1024"
"undefined","undefined","undefined","undefined","black","no","legacy","0","uniform","undefined","undefined","undefined","85","85","171","85","85","NA","85","85","0","0","0","85","85","0","85","0","NA","85","0","Fri 26 Jul 2019 12:00:52 PM PDT","500","1000","The main experiment item","yes","NA","ABX_v3.osexp","/home/ubuntu/Desktop/panara","no","no","mono","no","18","no","white","no","yes","768","31","53","/home/ubuntu/Desktop/panara/subject-114.csv","Jazzy James","3.1.3","3.1.1.wav","4.1.1.wav","4.1.3.wav","0","1","return","1","NA","2709","6533","2709","NA","194594","return","2","1024","2","48000","-16","experiment","3.1.1.wav","4.1.3.wav","4.1.1.wav","114","even","795531","798020","797520","796765","559619","NA","794531","798738","1054","NA","NA","794528","801447","594630","794528","195652","NA","794531","1057","New experiment","NA","0","0","0","yes","1024"
"undefined","undefined","undefined","undefined","black","no","legacy","0","uniform","undefined","undefined","undefined","86","86","173","86","86","NA","86","86","0","0","0","86","86","0","86","0","NA","86","0","Fri 26 Jul 2019 12:00:52 PM PDT","500","1000","The main experiment item","yes","NA","ABX_v3.osexp","/home/ubuntu/Desktop/panara","no","no","mono","no","18","no","white","no","yes","768","32","53","/home/ubuntu/Desktop/panara/subject-114.csv","Jazzy James","3.1.3","1.1.1.wav","2.1.1.wav","2.1.3.wav","0","1","return","1","NA","2130","6533","2130","NA","194594","return","2","1024","2","48000","-16","experiment","1.1.1.wav","2.1.3.wav","2.1.1.wav","114","even","802654","805229","804729","803977","559619","NA","801654","805988","1054","NA","NA","801651","808119","594630","801651","195652","NA","801654","1057","New experiment","NA","0","0","0","yes","1024"
"undefined","undefined","undefined","undefined","black","no","legacy","0","uniform","undefined","undefined","undefined","87","87","175","87","87","NA","87","87","0","0","0","87","87","0","87","0","NA","87","0","Fri 26 Jul 2019 12:00:52 PM PDT","500","1000","The main experiment item","yes","NA","ABX_v3.osexp","/home/ubuntu/Desktop/panara","yes","no","mono","no","18","no","white","no","yes","768","33","53","/home/ubuntu/Desktop/panara/subject-114.csv","Jazzy James","3.1.3","3.2.3.wav","3.2.1.wav","4.2.1.wav","0","1","return","1","NA","1358","6533","1358","NA","194594","return","2","1024","2","48000","-16","experiment","4.2.1.wav","3.2.3.wav","3.2.1.wav","114","even","809345","811826","811326","810580","559619","NA","808344","812577","1054","NA","NA","808342","813936","594630","808342","195652","NA","808345","1057","New experiment","NA","0","0","0","yes","1024"
"undefined","undefined","undefined","undefined","black","no","legacy","0","uniform","undefined","undefined","undefined","88","88","177","88","88","NA","88","88","0","0","0","88","88","0","88","0","NA","88","0","Fri 26 Jul 2019 12:00:52 PM PDT","500","1000","The main experiment item","yes","NA","ABX_v3.osexp","/home/ubuntu/Desktop/panara","yes","no","mono","no","18","no","white","no","yes","768","34","53","/home/ubuntu/Desktop/panara/subject-114.csv","Jazzy James","3.1.3","2.2.4.wav","4.2.4.wav","4.2.2.wav","0","0","return","0","NA","1411","6533","1411","NA","194594","return","2","1024","2","48000","-16","experiment","4.2.2.wav","2.2.4.wav","4.2.4.wav","114","even","815146","817625","817125","816410","559619","NA","814146","818338","1054","NA","NA","814144","819750","594630","814144","195652","NA","814146","1057","New experiment","NA","0","0","0","yes","1024"
"undefined","undefined","undefined","undefined","black","no","legacy","0","uniform","undefined","undefined","undefined","89","89","179","89","89","NA","89","89","0","0","0","89","89","0","89","0","NA","89","0","Fri 26 Jul 2019 12:00:52 PM PDT","500","1000","The main experiment item","yes","NA","ABX_v3.osexp","/home/ubuntu/Desktop/panara","yes","no","mono","no","18","no","white","no","yes","768","35","53","/home/ubuntu/Desktop/panara/subject-114.csv","Jazzy James","3.1.3","4.1.3.wav","4.1.1.wav","2.1.1.wav","0","1","return","1","NA","2441","6533","2441","NA","194594","return","2","1024","2","48000","-16","experiment","2.1.1.wav","4.1.3.wav","4.1.1.wav","114","even","820969","823379","822879","822163","559619","NA","819969","824132","1054","NA","NA","819966","826574","594630","819966","195652","NA","819969","1057","New experiment","NA","0","0","0","yes","1024"
"undefined","undefined","undefined","undefined","black","no","legacy","0","uniform","undefined","undefined","undefined","90","90","181","90","90","NA","90","90","0","0","0","90","90","0","90","0","NA","90","0","Fri 26 Jul 2019 12:00:52 PM PDT","500","1000","The main experiment item","yes","NA","ABX_v3.osexp","/home/ubuntu/Desktop/panara","no","no","mono","no","18","no","white","no","yes","768","36","53","/home/ubuntu/Desktop/panara/subject-114.csv","Jazzy James","3.1.3","1.2.2.wav","1.2.4.wav","1.1.4.wav","0","0","return","0","NA","1721","6533","1721","NA","194594","return","2","1024","2","48000","-16","experiment","1.2.2.wav","1.1.4.wav","1.2.4.wav","114","even","827771","830273","829773","829040","559619","NA","826771","831059","1054","NA","NA","826769","832781","594630","826769","195652","NA","826771","1057","New experiment","NA","0","0","0","yes","1024"
"undefined","undefined","undefined","undefined","black","no","legacy","0","uniform","undefined","undefined","undefined","91","91","183","91","91","NA","91","91","0","0","0","91","91","0","91","0","NA","91","0","Fri 26 Jul 2019 12:00:52 PM PDT","500","1000","The main experiment item","yes","NA","ABX_v3.osexp","/home/ubuntu/Desktop/panara","no","no","mono","no","18","no","white","no","yes","768","37","53","/home/ubuntu/Desktop/panara/subject-114.csv","Jazzy James","3.1.3","1.2.3.wav","1.1.3.wav","1.1.5.wav","0","1","return","1","NA","1807","6533","1807","NA","194594","return","2","1024","2","48000","-16","experiment","1.2.3.wav","1.1.5.wav","1.1.3.wav","114","even","834000","836605","836105","835303","559619","NA","833000","837373","1054","NA","NA","832997","839181","594630","832997","195652","NA","833000","1057","New experiment","NA","0","0","0","yes","1024"
"undefined","undefined","undefined","undefined","black","no","legacy","0","uniform","undefined","undefined","undefined","92","92","185","92","92","NA","92","92","0","0","0","92","92","0","92","0","NA","92","0","Fri 26 Jul 2019 12:00:52 PM PDT","500","1000","The main experiment item","yes","NA","ABX_v3.osexp","/home/ubuntu/Desktop/panara","no","no","mono","no","18","no","white","no","yes","768","38","53","/home/ubuntu/Desktop/panara/subject-114.csv","Jazzy James","3.1.3","4.2.2.wav","4.2.4.wav","4.1.4.wav","0","0","return","0","NA","2247","6533","2247","NA","194594","return","2","1024","2","48000","-16","experiment","4.2.2.wav","4.1.4.wav","4.2.4.wav","114","even","840394","842834","842334","841628","559619","NA","839394","843557","1054","NA","NA","839391","845804","594630","839391","195652","NA","839394","1057","New experiment","NA","0","0","0","yes","1024"
"undefined","undefined","undefined","undefined","black","no","legacy","0","uniform","undefined","undefined","undefined","93","93","187","93","93","NA","93","93","0","0","0","93","93","0","93","0","NA","93","0","Fri 26 Jul 2019 12:00:52 PM PDT","500","1000","The main experiment item","yes","NA","ABX_v3.osexp","/home/ubuntu/Desktop/panara","no","no","mono","no","18","no","white","no","yes","768","39","53","/home/ubuntu/Desktop/panara/subject-114.csv","Jazzy James","3.1.3","4.1.2.wav","2.1.2.wav","2.1.4.wav","0","0","return","0","NA","1482","6533","1482","NA","194594","return","2","1024","2","48000","-16","experiment","4.1.2.wav","2.1.4.wav","2.1.2.wav","114","even","847029","849491","848990","848235","559619","NA","846029","850233","1054","NA","NA","846027","851716","594630","846027","195652","NA","846029","1057","New experiment","NA","0","0","0","yes","1024"
"undefined","undefined","undefined","undefined","black","no","legacy","0","uniform","undefined","undefined","undefined","94","94","189","94","94","NA","94","94","0","0","0","94","94","0","94","0","NA","94","0","Fri 26 Jul 2019 12:00:52 PM PDT","500","1000","The main experiment item","yes","NA","ABX_v3.osexp","/home/ubuntu/Desktop/panara","no","no","mono","no","18","no","white","no","yes","768","40","53","/home/ubuntu/Desktop/panara/subject-114.csv","Jazzy James","3.1.3","4.1.2.wav","3.1.2.wav","3.1.4.wav","0","1","return","1","NA","1648","6533","1648","NA","194594","return","2","1024","2","48000","-16","experiment","4.1.2.wav","3.1.4.wav","3.1.2.wav","114","even","852927","855447","854947","854161","559619","NA","851926","856228","1054","NA","NA","851924","857877","594630","851924","195652","NA","851927","1057","New experiment","NA","0","0","0","yes","1024"
"undefined","undefined","undefined","undefined","black","no","legacy","0","uniform","undefined","undefined","undefined","95","95","191","95","95","NA","95","95","0","0","0","95","95","0","95","0","NA","95","0","Fri 26 Jul 2019 12:00:52 PM PDT","500","1000","The main experiment item","yes","NA","ABX_v3.osexp","/home/ubuntu/Desktop/panara","no","no","mono","no","18","no","white","no","yes","768","41","53","/home/ubuntu/Desktop/panara/subject-114.csv","Jazzy James","3.1.3","3.2.1.wav","4.2.1.wav","4.2.3.wav","0","1","return","1","NA","897","6533","897","NA","194594","return","2","1024","2","48000","-16","experiment","3.2.1.wav","4.2.3.wav","4.2.1.wav","114","even","859060","861530","861030","860314","559619","NA","858060","862274","1054","NA","NA","858057","863172","594630","858057","195652","NA","858060","1057","New experiment","NA","0","0","0","yes","1024"
"undefined","undefined","undefined","undefined","black","no","legacy","0","uniform","undefined","undefined","undefined","96","96","193","96","96","NA","96","96","0","0","0","96","96","0","96","0","NA","96","0","Fri 26 Jul 2019 12:00:52 PM PDT","500","1000","The main experiment item","yes","NA","ABX_v3.osexp","/home/ubuntu/Desktop/panara","yes","no","mono","no","18","no","white","no","yes","768","42","53","/home/ubuntu/Desktop/panara/subject-114.csv","Jazzy James","3.1.3","3.1.4.wav","3.1.2.wav","1.1.2.wav","0","1","return","1","NA","1482","6533","1482","NA","194594","return","2","1024","2","48000","-16","experiment","1.1.2.wav","3.1.4.wav","3.1.2.wav","114","even","864403","866960","866460","865686","559619","NA","863403","867753","1054","NA","NA","863400","869235","594630","863400","195652","NA","863403","1057","New experiment","NA","0","0","0","yes","1024"
"undefined","undefined","undefined","undefined","black","no","legacy","0","uniform","undefined","undefined","undefined","97","97","195","97","97","NA","97","97","0","0","0","97","97","0","97","0","NA","97","0","Fri 26 Jul 2019 12:00:52 PM PDT","500","1000","The main experiment item","yes","NA","ABX_v3.osexp","/home/ubuntu/Desktop/panara","yes","no","mono","no","18","no","white","no","yes","768","43","53","/home/ubuntu/Desktop/panara/subject-114.csv","Jazzy James","3.1.3","3.1.5.wav","3.2.5.wav","3.2.3.wav","0","1","return","1","NA","682","6533","682","NA","194594","return","2","1024","2","48000","-16","experiment","3.2.3.wav","3.1.5.wav","3.2.5.wav","114","even","870442","873001","872501","871726","559619","NA","869441","873768","1054","NA","NA","869438","874451","594630","869438","195652","NA","869442","1057","New experiment","NA","0","0","0","yes","1024"
"undefined","undefined","undefined","undefined","black","no","legacy","0","uniform","undefined","undefined","undefined","98","98","197","98","98","NA","98","98","0","0","0","98","98","0","98","0","NA","98","0","Fri 26 Jul 2019 12:00:52 PM PDT","500","1000","The main experiment item","yes","NA","ABX_v3.osexp","/home/ubuntu/Desktop/panara","yes","no","mono","no","18","no","white","no","yes","768","44","53","/home/ubuntu/Desktop/panara/subject-114.csv","Jazzy James","3.1.3","2.1.4.wav","2.1.2.wav","2.2.2.wav","0","0","return","0","NA","1076","6533","1076","NA","194594","return","2","1024","2","48000","-16","experiment","2.2.2.wav","2.1.4.wav","2.1.2.wav","114","even","875618","878124","877624","876880","559619","NA","874617","878879","1054","NA","NA","874614","879956","594630","874614","195652","NA","874618","1057","New experiment","NA","0","0","0","yes","1024"
"undefined","undefined","undefined","undefined","black","no","legacy","0","uniform","undefined","undefined","undefined","99","99","199","99","99","NA","99","99","0","0","0","99","99","0","99","0","NA","99","0","Fri 26 Jul 2019 12:00:52 PM PDT","500","1000","The main experiment item","yes","NA","ABX_v3.osexp","/home/ubuntu/Desktop/panara","no","no","mono","no","18","no","white","no","yes","768","45","53","/home/ubuntu/Desktop/panara/subject-114.csv","Jazzy James","3.1.3","3.2.3.wav","3.1.3.wav","3.1.5.wav","0","1","return","1","NA","1287","6533","1287","NA","194594","return","2","1024","2","48000","-16","experiment","3.2.3.wav","3.1.5.wav","3.1.3.wav","114","even","881175","883673","883173","882410","559619","NA","880174","884451","1054","NA","NA","880172","885739","594630","880172","195652","NA","880174","1057","New experiment","NA","0","0","0","yes","1024"
"undefined","undefined","undefined","undefined","black","no","legacy","0","uniform","undefined","undefined","undefined","100","100","201","100","100","NA","100","100","0","0","0","100","100","0","100","0","NA","100","0","Fri 26 Jul 2019 12:00:52 PM PDT","500","1000","The main experiment item","yes","NA","ABX_v3.osexp","/home/ubuntu/Desktop/panara","no","no","mono","no","18","no","white","no","yes","768","46","53","/home/ubuntu/Desktop/panara/subject-114.csv","Jazzy James","3.1.3","4.1.2.wav","4.1.4.wav","4.2.4.wav","0","0","1","0","NA","1298","7146","1298","NA","194594","return","2","1024","2","48000","-16","experiment","4.1.2.wav","4.2.4.wav","4.1.4.wav","114","even","894117","896596","896096","895381","885967","NA","893117","897319","1054","NA","NA","885965","898618","594630","885965","195652","NA","893117","1057","New experiment","NA","0","0","0","yes","1024"
"undefined","undefined","undefined","undefined","black","no","legacy","0","uniform","undefined","undefined","undefined","101","101","203","101","101","NA","101","101","0","0","0","101","101","0","101","0","NA","101","0","Fri 26 Jul 2019 12:00:52 PM PDT","500","1000","The main experiment item","yes","NA","ABX_v3.osexp","/home/ubuntu/Desktop/panara","no","no","mono","no","18","no","white","no","yes","768","47","53","/home/ubuntu/Desktop/panara/subject-114.csv","Jazzy James","3.1.3","1.1.1.wav","1.1.3.wav","3.1.3.wav","0","1","1","1","NA","1740","7146","1740","NA","194594","return","2","1024","2","48000","-16","experiment","1.1.1.wav","3.1.3.wav","1.1.3.wav","114","even","899806","902424","901924","901144","885967","NA","898806","903158","1054","NA","NA","898804","904899","594630","898803","195652","NA","898806","1057","New experiment","NA","0","0","0","yes","1024"
"undefined","undefined","undefined","undefined","black","no","legacy","0","uniform","undefined","undefined","undefined","102","102","205","102","102","NA","102","102","0","0","0","102","102","0","102","0","NA","102","0","Fri 26 Jul 2019 12:00:52 PM PDT","500","1000","The main experiment item","yes","NA","ABX_v3.osexp","/home/ubuntu/Desktop/panara","yes","no","mono","no","18","no","white","no","yes","768","48","53","/home/ubuntu/Desktop/panara/subject-114.csv","Jazzy James","3.1.3","2.1.5.wav","2.2.5.wav","2.2.3.wav","0","1","1","1","NA","1314","7146","1314","NA","194594","return","2","1024","2","48000","-16","experiment","2.2.3.wav","2.1.5.wav","2.2.5.wav","114","even","906127","908632","908132","907368","885967","NA","905127","909350","1054","NA","NA","905124","910665","594630","905124","195652","NA","905127","1057","New experiment","NA","0","0","0","yes","1024"
"undefined","undefined","undefined","undefined","black","no","legacy","0","uniform","undefined","undefined","undefined","103","103","207","103","103","NA","103","103","0","0","0","103","103","0","103","0","NA","103","0","Fri 26 Jul 2019 12:00:52 PM PDT","500","1000","The main experiment item","yes","NA","ABX_v3.osexp","/home/ubuntu/Desktop/panara","no","no","mono","no","18","no","white","no","yes","768","49","53","/home/ubuntu/Desktop/panara/subject-114.csv","Jazzy James","3.1.3","4.2.1.wav","4.2.3.wav","3.2.3.wav","0","1","1","1","NA","731","7146","731","NA","194594","return","2","1024","2","48000","-16","experiment","4.2.1.wav","3.2.3.wav","4.2.3.wav","114","even","911839","914319","913819","913081","885967","NA","910839","915061","1054","NA","NA","910836","915793","594630","910836","195652","NA","910839","1057","New experiment","NA","0","0","0","yes","1024"
"undefined","undefined","undefined","undefined","black","no","legacy","0","uniform","undefined","undefined","undefined","104","104","209","104","104","NA","104","104","0","0","0","104","104","0","104","0","NA","104","0","Fri 26 Jul 2019 12:00:52 PM PDT","500","1000","The main experiment item","yes","NA","ABX_v3.osexp","/home/ubuntu/Desktop/panara","no","no","mono","no","18","no","white","no","yes","768","50","53","/home/ubuntu/Desktop/panara/subject-114.csv","Jazzy James","3.1.3","2.2.1.wav","4.2.1.wav","4.2.3.wav","0","1","1","1","NA","934","7146","934","NA","194594","return","2","1024","2","48000","-16","experiment","2.2.1.wav","4.2.3.wav","4.2.1.wav","114","even","917007","919439","918939","918227","885967","NA","916007","920186","1054","NA","NA","916005","921121","594630","916005","195652","NA","916007","1057","New experiment","NA","0","0","0","yes","1024"
"undefined","undefined","undefined","undefined","black","no","legacy","0","uniform","undefined","undefined","undefined","105","105","211","105","105","NA","105","105","0","0","0","105","105","0","105","0","NA","105","0","Fri 26 Jul 2019 12:00:52 PM PDT","500","1000","The main experiment item","yes","NA","ABX_v3.osexp","/home/ubuntu/Desktop/panara","yes","no","mono","no","18","no","white","no","yes","768","51","53","/home/ubuntu/Desktop/panara/subject-114.csv","Jazzy James","3.1.3","4.1.3.wav","4.1.1.wav","4.2.1.wav","0","1","1","1","NA","2031","7146","2031","NA","194594","return","2","1024","2","48000","-16","experiment","4.2.1.wav","4.1.3.wav","4.1.1.wav","114","even","922318","924750","924250","923534","885967","NA","921318","925473","1054","NA","NA","921315","927504","594630","921315","195652","NA","921318","1057","New experiment","NA","0","0","0","yes","1024"
"undefined","undefined","undefined","undefined","black","no","legacy","0","uniform","undefined","undefined","undefined","106","106","213","106","106","NA","106","106","0","0","0","106","106","0","106","0","NA","106","0","Fri 26 Jul 2019 12:00:52 PM PDT","500","1000","The main experiment item","yes","NA","ABX_v3.osexp","/home/ubuntu/Desktop/panara","no","no","mono","no","18","no","white","no","yes","768","52","53","/home/ubuntu/Desktop/panara/subject-114.csv","Jazzy James","3.1.3","3.1.3.wav","3.2.3.wav","3.2.5.wav","0","0","1","0","NA","2121","7146","2121","NA","194594","return","2","1024","2","48000","-16","experiment","3.1.3.wav","3.2.5.wav","3.2.3.wav","114","even","928685","931175","930675","929943","885967","NA","927684","931958","1054","NA","NA","927682","934080","594630","927682","195652","NA","927684","1057","New experiment","NA","0","0","0","yes","1024"
"undefined","undefined","undefined","undefined","black","no","legacy","0","uniform","undefined","undefined","undefined","107","107","215","107","107","NA","107","107","0","0","0","107","107","0","107","0","NA","107","0","Fri 26 Jul 2019 12:00:52 PM PDT","500","1000","The main experiment item","yes","NA","ABX_v3.osexp","/home/ubuntu/Desktop/panara","yes","no","mono","no","18","no","white","no","yes","768","53","53","/home/ubuntu/Desktop/panara/subject-114.csv","Jazzy James","3.1.3","3.1.5.wav","3.1.3.wav","4.1.3.wav","0","1","1","1","NA","793","7146","793","NA","194594","return","2","1024","2","48000","-16","experiment","4.1.3.wav","3.1.5.wav","3.1.3.wav","114","even","935268","937805","937305","936550","885967","NA","934267","938542","1054","NA","NA","934265","939336","594630","934265","195652","NA","934267","1057","New experiment","NA","0","0","0","yes","1024"
"undefined","undefined","undefined","undefined","black","no","legacy","0","uniform","undefined","undefined","undefined","108","108","217","108","108","NA","108","108","0","0","0","108","108","0","108","0","NA","108","0","Fri 26 Jul 2019 12:00:52 PM PDT","500","1000","The main experiment item","yes","NA","ABX_v3.osexp","/home/ubuntu/Desktop/panara","yes","no","mono","no","18","no","white","no","yes","768","54","53","/home/ubuntu/Desktop/panara/subject-114.csv","Jazzy James","3.1.3","4.1.5.wav","4.2.5.wav","4.2.3.wav","0","1","1","1","NA","959","7146","959","NA","194594","return","2","1024","2","48000","-16","experiment","4.2.3.wav","4.1.5.wav","4.2.5.wav","114","even","940543","942967","942467","941755","885967","NA","939543","943720","1054","NA","NA","939540","944679","594630","939540","195652","NA","939543","1057","New experiment","NA","0","0","0","yes","1024"
"undefined","undefined","undefined","undefined","black","no","legacy","0","uniform","undefined","undefined","undefined","109","109","219","109","109","NA","109","109","0","0","0","109","109","0","109","0","NA","109","0","Fri 26 Jul 2019 12:00:52 PM PDT","500","1000","The main experiment item","yes","NA","ABX_v3.osexp","/home/ubuntu/Desktop/panara","no","no","mono","no","18","no","white","no","yes","768","55","53","/home/ubuntu/Desktop/panara/subject-114.csv","Jazzy James","3.1.3","3.2.1.wav","3.2.3.wav","4.2.3.wav","0","0","1","0","NA","952","7146","952","NA","194594","return","2","1024","2","48000","-16","experiment","3.2.1.wav","4.2.3.wav","3.2.3.wav","114","even","945899","948418","947918","947161","885967","NA","944899","949150","1054","NA","NA","944897","950103","594630","944897","195652","NA","944899","1057","New experiment","NA","0","0","0","yes","1024"
"undefined","undefined","undefined","undefined","black","no","legacy","0","uniform","undefined","undefined","undefined","110","110","221","110","110","NA","110","110","0","0","0","110","110","0","110","0","NA","110","0","Fri 26 Jul 2019 12:00:52 PM PDT","500","1000","The main experiment item","yes","NA","ABX_v3.osexp","/home/ubuntu/Desktop/panara","yes","no","mono","no","18","no","white","no","yes","768","56","53","/home/ubuntu/Desktop/panara/subject-114.csv","Jazzy James","3.1.3","4.2.5.wav","4.2.3.wav","2.2.3.wav","0","1","1","1","NA","1675","7146","1675","NA","194594","return","2","1024","2","48000","-16","experiment","2.2.3.wav","4.2.5.wav","4.2.3.wav","114","even","951311","953828","953328","952576","885967","NA","950311","954587","1054","NA","NA","950308","956263","594630","950308","195652","NA","950311","1057","New experiment","NA","0","0","0","yes","1024"
"undefined","undefined","undefined","undefined","black","no","legacy","0","uniform","undefined","undefined","undefined","111","111","223","111","111","NA","111","111","0","0","0","111","111","0","111","0","NA","111","0","Fri 26 Jul 2019 12:00:52 PM PDT","500","1000","The main experiment item","yes","NA","ABX_v3.osexp","/home/ubuntu/Desktop/panara","yes","no","mono","no","18","no","white","no","yes","768","57","53","/home/ubuntu/Desktop/panara/subject-114.csv","Jazzy James","3.1.3","2.1.4.wav","1.1.4.wav","1.1.2.wav","0","0","1","0","NA","2366","7146","2366","NA","194594","return","2","1024","2","48000","-16","experiment","1.1.2.wav","2.1.4.wav","1.1.4.wav","114","even","957490","960017","959517","958736","885967","NA","956490","960824","1054","NA","NA","956487","963190","594630","956487","195652","NA","956490","1057","New experiment","NA","0","0","0","yes","1024"
"undefined","undefined","undefined","undefined","black","no","legacy","0","uniform","undefined","undefined","undefined","112","112","225","112","112","NA","112","112","0","0","0","112","112","0","112","0","NA","112","0","Fri 26 Jul 2019 12:00:52 PM PDT","500","1000","The main experiment item","yes","NA","ABX_v3.osexp","/home/ubuntu/Desktop/panara","yes","no","mono","no","18","no","white","no","yes","768","58","53","/home/ubuntu/Desktop/panara/subject-114.csv","Jazzy James","3.1.3","1.2.3.wav","3.2.3.wav","3.2.1.wav","0","1","1","1","NA","3046","7146","3046","NA","194594","return","2","1024","2","48000","-16","experiment","3.2.1.wav","1.2.3.wav","3.2.3.wav","114","even","964399","966910","966410","965665","885967","NA","963399","967663","1054","NA","NA","963396","970710","594630","963396","195652","NA","963399","1057","New experiment","NA","0","0","0","yes","1024"
