"acc","accuracy","average_response_time","avg_rt","background","bidi","canvas_backend","compensation","coordinates","correct","correct_display_selecting","correct_welcome","count_A","count_B","count_ISI","count_X","count_break","count_determine_break","count_display_listening","count_display_selecting","count_experiment","count_finished","count_getting_started","count_new_inline_script","count_new_logger","count_new_loop","count_new_sequence","count_plain_block","count_setup_breaks","count_wait_nextitem","count_welcome","datetime","delay_ISI","delay_wait_nextitem","description","disable_garbage_collection","empty_column","experiment_file","experiment_path","flip_order","font_bold","font_family","font_italic","font_size","font_underline","foreground","form_clicks","fullscreen","height","live_row","live_row_plain_block","logfile","opensesame_codename","opensesame_version","play1","play2","play3","repeat_cycle","response","response_break","response_display_selecting","response_finished","response_time","response_time_break","response_time_display_selecting","response_time_finished","response_time_welcome","response_welcome","round_decimals","sound_buf_size","sound_channels","sound_freq","sound_sample_size","start","stimA","stimB","stimX","subject_nr","subject_parity","time_A","time_B","time_ISI","time_X","time_break","time_determine_break","time_display_listening","time_display_selecting","time_experiment","time_finished","time_getting_started","time_new_inline_script","time_new_logger","time_new_loop","time_new_sequence","time_plain_block","time_setup_breaks","time_wait_nextitem","time_welcome","title","to_break","total_correct","total_response_time","total_responses","uniform_coordinates","width"
"undefined","undefined","undefined","undefined","black","no","legacy","0","uniform","undefined","undefined","undefined","0","0","1","0","0","NA","0","0","0","0","0","0","0","0","0","0","NA","0","0","Tue 02 Jul 2019 12:14:51 PM PDT","500","1000","The main experiment item","yes","NA","ABX_v3.osexp","/home/ubuntu/Desktop/panara","yes","no","mono","no","18","no","white","no","yes","768","0","0","/home/ubuntu/Desktop/panara/subject-109.csv","Jazzy James","3.1.3","4.1.4.wav","4.1.2.wav","4.1.2.wav","0","0","NA","0","NA","2099","NA","2099","NA","2901638","space","2","1024","2","48000","-16","experiment","4.1.2.wav","4.1.4.wav","4.1.2.wav","109","odd","2903428","2905874","2905374","2904652","NA","NA","2902427","2906588","712","NA","NA","2902424","2908688","NA","2902424","2902352","NA","2902428","714","New experiment","NA","0","0","0","yes","1024"
"undefined","undefined","undefined","undefined","black","no","legacy","0","uniform","undefined","undefined","undefined","1","1","3","1","1","NA","1","1","0","0","0","1","1","0","1","0","NA","1","0","Tue 02 Jul 2019 12:14:51 PM PDT","500","1000","The main experiment item","yes","NA","ABX_v3.osexp","/home/ubuntu/Desktop/panara","yes","no","mono","no","18","no","white","no","yes","768","1","1","/home/ubuntu/Desktop/panara/subject-109.csv","Jazzy James","3.1.3","1.1.3.wav","1.1.1.wav","1.1.1.wav","0","1","NA","1","NA","1613","NA","1613","NA","2901638","space","2","1024","2","48000","-16","experiment","1.1.1.wav","1.1.3.wav","1.1.1.wav","109","odd","2909963","2912528","2912028","2911249","NA","NA","2908963","2913306","712","NA","NA","2908960","2914919","NA","2908960","2902352","NA","2908963","714","New experiment","NA","0","0","0","yes","1024"
"undefined","undefined","undefined","undefined","black","no","legacy","0","uniform","undefined","undefined","undefined","2","2","5","2","2","NA","2","2","0","0","0","2","2","0","2","0","NA","2","0","Tue 02 Jul 2019 12:14:51 PM PDT","500","1000","The main experiment item","yes","NA","ABX_v3.osexp","/home/ubuntu/Desktop/panara","yes","no","mono","no","18","no","white","no","yes","768","2","2","/home/ubuntu/Desktop/panara/subject-109.csv","Jazzy James","3.1.3","4.2.4.wav","4.2.2.wav","4.2.2.wav","0","0","NA","0","NA","1241","NA","1241","NA","2901638","space","2","1024","2","48000","-16","experiment","4.2.2.wav","4.2.4.wav","4.2.2.wav","109","odd","2916103","2918535","2918034","2917325","NA","NA","2915103","2919254","712","NA","NA","2915100","2920495","NA","2915100","2902352","NA","2915103","714","New experiment","NA","0","0","0","yes","1024"
"undefined","undefined","undefined","undefined","black","no","legacy","0","uniform","undefined","undefined","undefined","3","3","7","3","3","NA","3","3","0","0","0","3","3","0","3","0","NA","3","0","Tue 02 Jul 2019 12:14:51 PM PDT","500","1000","The main experiment item","yes","NA","ABX_v3.osexp","/home/ubuntu/Desktop/panara","no","no","mono","no","18","no","white","no","yes","768","3","3","/home/ubuntu/Desktop/panara/subject-109.csv","Jazzy James","3.1.3","4.1.1.wav","4.1.3.wav","4.1.3.wav","0","0","NA","0","NA","1060","NA","1060","NA","2901638","space","2","1024","2","48000","-16","experiment","4.1.1.wav","4.1.3.wav","4.1.3.wav","109","odd","2921744","2924177","2923677","2922952","NA","NA","2920743","2924890","712","NA","NA","2920741","2925951","NA","2920741","2902352","NA","2920744","714","New experiment","NA","0","0","0","yes","1024"
"undefined","undefined","undefined","undefined","black","no","legacy","0","uniform","undefined","undefined","undefined","4","4","9","4","4","NA","4","4","0","0","0","4","4","0","4","0","NA","4","0","Tue 02 Jul 2019 12:14:51 PM PDT","500","1000","The main experiment item","yes","NA","ABX_v3.osexp","/home/ubuntu/Desktop/panara","yes","no","mono","no","18","no","white","no","yes","768","4","4","/home/ubuntu/Desktop/panara/subject-109.csv","Jazzy James","3.1.3","4.1.5.wav","4.1.3.wav","4.1.3.wav","0","0","NA","0","NA","1475","NA","1475","NA","2901638","space","2","1024","2","48000","-16","experiment","4.1.3.wav","4.1.5.wav","4.1.3.wav","109","odd","2927113","2929547","2929047","2928337","NA","NA","2926113","2930267","712","NA","NA","2926110","2931742","NA","2926110","2902352","NA","2926113","714","New experiment","NA","0","0","0","yes","1024"
"undefined","undefined","undefined","undefined","black","no","legacy","0","uniform","undefined","undefined","undefined","5","5","11","5","5","NA","5","5","0","0","0","5","5","0","5","0","NA","5","0","Tue 02 Jul 2019 12:14:51 PM PDT","500","1000","The main experiment item","yes","NA","ABX_v3.osexp","/home/ubuntu/Desktop/panara","no","no","mono","no","18","no","white","no","yes","768","5","5","/home/ubuntu/Desktop/panara/subject-109.csv","Jazzy James","3.1.3","1.1.3.wav","1.1.5.wav","1.1.5.wav","0","1","NA","1","NA","2545","NA","2545","NA","2901638","space","2","1024","2","48000","-16","experiment","1.1.3.wav","1.1.5.wav","1.1.5.wav","109","odd","2932903","2935500","2935000","2934220","NA","NA","2931903","2936277","712","NA","NA","2931900","2938822","NA","2931900","2902352","NA","2931903","714","New experiment","NA","0","0","0","yes","1024"
"undefined","undefined","undefined","undefined","black","no","legacy","0","uniform","undefined","undefined","undefined","6","6","13","6","6","NA","6","6","0","0","0","6","6","0","6","0","NA","6","0","Tue 02 Jul 2019 12:14:51 PM PDT","500","1000","The main experiment item","yes","NA","ABX_v3.osexp","/home/ubuntu/Desktop/panara","yes","no","mono","no","18","no","white","no","yes","768","6","6","/home/ubuntu/Desktop/panara/subject-109.csv","Jazzy James","3.1.3","2.2.4.wav","2.2.4.wav","2.2.2.wav","0","1","NA","1","NA","860","NA","860","NA","2901638","space","2","1024","2","48000","-16","experiment","2.2.2.wav","2.2.4.wav","2.2.4.wav","109","odd","2940024","2942480","2941980","2941255","NA","NA","2939023","2943192","712","NA","NA","2939021","2944053","NA","2939021","2902352","NA","2939024","714","New experiment","NA","0","0","0","yes","1024"
"undefined","undefined","undefined","undefined","black","no","legacy","0","uniform","undefined","undefined","undefined","7","7","15","7","7","NA","7","7","0","0","0","7","7","0","7","0","NA","7","0","Tue 02 Jul 2019 12:14:51 PM PDT","500","1000","The main experiment item","yes","NA","ABX_v3.osexp","/home/ubuntu/Desktop/panara","yes","no","mono","no","18","no","white","no","yes","768","7","7","/home/ubuntu/Desktop/panara/subject-109.csv","Jazzy James","3.1.3","3.1.5.wav","3.1.5.wav","3.1.3.wav","0","1","NA","1","NA","1714","NA","1714","NA","2901638","space","2","1024","2","48000","-16","experiment","3.1.3.wav","3.1.5.wav","3.1.5.wav","109","odd","2945227","2947783","2947283","2946510","NA","NA","2944227","2948530","712","NA","NA","2944225","2950244","NA","2944224","2902352","NA","2944227","714","New experiment","NA","0","0","0","yes","1024"
"undefined","undefined","undefined","undefined","black","no","legacy","0","uniform","undefined","undefined","undefined","8","8","17","8","8","NA","8","8","0","0","0","8","8","0","8","0","NA","8","0","Tue 02 Jul 2019 12:14:51 PM PDT","500","1000","The main experiment item","yes","NA","ABX_v3.osexp","/home/ubuntu/Desktop/panara","no","no","mono","no","18","no","white","no","yes","768","8","8","/home/ubuntu/Desktop/panara/subject-109.csv","Jazzy James","3.1.3","4.2.1.wav","4.2.1.wav","4.2.3.wav","0","1","NA","1","NA","1287","NA","1287","NA","2901638","space","2","1024","2","48000","-16","experiment","4.2.1.wav","4.2.3.wav","4.2.1.wav","109","odd","2951415","2953866","2953366","2952655","NA","NA","2950415","2954614","712","NA","NA","2950413","2955901","NA","2950412","2902352","NA","2950415","714","New experiment","NA","0","0","0","yes","1024"
"undefined","undefined","undefined","undefined","black","no","legacy","0","uniform","undefined","undefined","undefined","9","9","19","9","9","NA","9","9","0","0","0","9","9","0","9","0","NA","9","0","Tue 02 Jul 2019 12:14:51 PM PDT","500","1000","The main experiment item","yes","NA","ABX_v3.osexp","/home/ubuntu/Desktop/panara","yes","no","mono","no","18","no","white","no","yes","768","9","9","/home/ubuntu/Desktop/panara/subject-109.csv","Jazzy James","3.1.3","3.1.4.wav","3.1.4.wav","3.1.2.wav","0","0","NA","0","NA","1391","NA","1391","NA","2901638","space","2","1024","2","48000","-16","experiment","3.1.2.wav","3.1.4.wav","3.1.4.wav","109","odd","2957087","2959650","2959150","2958366","NA","NA","2956087","2960437","712","NA","NA","2956084","2961829","NA","2956084","2902352","NA","2956087","714","New experiment","NA","0","0","0","yes","1024"
"undefined","undefined","undefined","undefined","black","no","legacy","0","uniform","undefined","undefined","undefined","10","10","21","10","10","NA","10","10","0","0","0","10","10","0","10","0","NA","10","0","Tue 02 Jul 2019 12:14:51 PM PDT","500","1000","The main experiment item","yes","NA","ABX_v3.osexp","/home/ubuntu/Desktop/panara","yes","no","mono","no","18","no","white","no","yes","768","10","10","/home/ubuntu/Desktop/panara/subject-109.csv","Jazzy James","3.1.3","2.2.5.wav","2.2.5.wav","2.2.3.wav","0","1","NA","1","NA","985","NA","985","NA","2901638","space","2","1024","2","48000","-16","experiment","2.2.3.wav","2.2.5.wav","2.2.5.wav","109","odd","2963044","2965508","2965008","2964305","NA","NA","2962044","2966226","712","NA","NA","2962041","2967211","NA","2962041","2902352","NA","2962044","714","New experiment","NA","0","0","0","yes","1024"
"undefined","undefined","undefined","undefined","black","no","legacy","0","uniform","undefined","undefined","undefined","11","11","23","11","11","NA","11","11","0","0","0","11","11","0","11","0","NA","11","0","Tue 02 Jul 2019 12:14:51 PM PDT","500","1000","The main experiment item","yes","NA","ABX_v3.osexp","/home/ubuntu/Desktop/panara","yes","no","mono","no","18","no","white","no","yes","768","11","11","/home/ubuntu/Desktop/panara/subject-109.csv","Jazzy James","3.1.3","2.1.3.wav","2.1.1.wav","2.1.1.wav","0","0","NA","0","NA","3279","NA","3279","NA","2901638","space","2","1024","2","48000","-16","experiment","2.1.1.wav","2.1.3.wav","2.1.1.wav","109","odd","2968381","2970889","2970389","2969638","NA","NA","2967380","2971628","712","NA","NA","2967378","2974908","NA","2967378","2902352","NA","2967381","714","New experiment","NA","0","0","0","yes","1024"
"undefined","undefined","undefined","undefined","black","no","legacy","0","uniform","undefined","undefined","undefined","12","12","25","12","12","NA","12","12","0","0","0","12","12","0","12","0","NA","12","0","Tue 02 Jul 2019 12:14:51 PM PDT","500","1000","The main experiment item","yes","NA","ABX_v3.osexp","/home/ubuntu/Desktop/panara","no","no","mono","no","18","no","white","no","yes","768","12","12","/home/ubuntu/Desktop/panara/subject-109.csv","Jazzy James","3.1.3","5.2.3.wav","5.2.3.wav","5.2.5.wav","0","1","NA","1","NA","1079","NA","1079","NA","2901638","space","2","1024","2","48000","-16","experiment","5.2.3.wav","5.2.5.wav","5.2.3.wav","109","odd","2976101","2978563","2978063","2977358","NA","NA","2975100","2979292","712","NA","NA","2975098","2980372","NA","2975097","2902352","NA","2975101","714","New experiment","NA","0","0","0","yes","1024"
"undefined","undefined","undefined","undefined","black","no","legacy","0","uniform","undefined","undefined","undefined","13","13","27","13","13","NA","13","13","0","0","0","13","13","0","13","0","NA","13","0","Tue 02 Jul 2019 12:14:51 PM PDT","500","1000","The main experiment item","yes","NA","ABX_v3.osexp","/home/ubuntu/Desktop/panara","no","no","mono","no","18","no","white","no","yes","768","13","13","/home/ubuntu/Desktop/panara/subject-109.csv","Jazzy James","3.1.3","4.1.3.wav","4.1.5.wav","4.1.5.wav","0","0","NA","0","NA","761","NA","761","NA","2901638","space","2","1024","2","48000","-16","experiment","4.1.3.wav","4.1.5.wav","4.1.5.wav","109","odd","2981556","2984008","2983508","2982798","NA","NA","2980556","2984722","712","NA","NA","2980554","2985483","NA","2980553","2902352","NA","2980556","714","New experiment","NA","0","0","0","yes","1024"
"undefined","undefined","undefined","undefined","black","no","legacy","0","uniform","undefined","undefined","undefined","14","14","29","14","14","NA","14","14","0","0","0","14","14","0","14","0","NA","14","0","Tue 02 Jul 2019 12:14:51 PM PDT","500","1000","The main experiment item","yes","NA","ABX_v3.osexp","/home/ubuntu/Desktop/panara","yes","no","mono","no","18","no","white","no","yes","768","14","14","/home/ubuntu/Desktop/panara/subject-109.csv","Jazzy James","3.1.3","5.2.3.wav","5.2.3.wav","5.2.1.wav","0","0","NA","0","NA","1192","NA","1192","NA","2901638","space","2","1024","2","48000","-16","experiment","5.2.1.wav","5.2.3.wav","5.2.3.wav","109","odd","2986633","2989061","2988561","2987844","NA","NA","2985632","2989779","712","NA","NA","2985630","2990971","NA","2985630","2902352","NA","2985633","714","New experiment","NA","0","0","0","yes","1024"
"undefined","undefined","undefined","undefined","black","no","legacy","0","uniform","undefined","undefined","undefined","15","15","31","15","15","NA","15","15","0","0","0","15","15","0","15","0","NA","15","0","Tue 02 Jul 2019 12:14:51 PM PDT","500","1000","The main experiment item","yes","NA","ABX_v3.osexp","/home/ubuntu/Desktop/panara","no","no","mono","no","18","no","white","no","yes","768","15","15","/home/ubuntu/Desktop/panara/subject-109.csv","Jazzy James","3.1.3","3.1.2.wav","3.1.2.wav","3.1.4.wav","0","0","NA","0","NA","3260","NA","3260","NA","2901638","space","2","1024","2","48000","-16","experiment","3.1.2.wav","3.1.4.wav","3.1.2.wav","109","odd","2992081","2994636","2994136","2993352","NA","NA","2991081","2995414","712","NA","NA","2991078","2998675","NA","2991078","2902352","NA","2991081","714","New experiment","NA","0","0","0","yes","1024"
"undefined","undefined","undefined","undefined","black","no","legacy","0","uniform","undefined","undefined","undefined","16","16","33","16","16","NA","16","16","0","0","0","16","16","0","16","0","NA","16","0","Tue 02 Jul 2019 12:14:51 PM PDT","500","1000","The main experiment item","yes","NA","ABX_v3.osexp","/home/ubuntu/Desktop/panara","yes","no","mono","no","18","no","white","no","yes","768","16","16","/home/ubuntu/Desktop/panara/subject-109.csv","Jazzy James","3.1.3","3.2.5.wav","3.2.5.wav","3.2.3.wav","0","1","NA","1","NA","657","NA","657","NA","2901638","space","2","1024","2","48000","-16","experiment","3.2.3.wav","3.2.5.wav","3.2.5.wav","109","odd","2999853","3002396","3001896","3001126","NA","NA","2998852","3003161","712","NA","NA","2998849","3003818","NA","2998849","2902352","NA","2998853","714","New experiment","NA","0","0","0","yes","1024"
"undefined","undefined","undefined","undefined","black","no","legacy","0","uniform","undefined","undefined","undefined","17","17","35","17","17","NA","17","17","0","0","0","17","17","0","17","0","NA","17","0","Tue 02 Jul 2019 12:14:51 PM PDT","500","1000","The main experiment item","yes","NA","ABX_v3.osexp","/home/ubuntu/Desktop/panara","yes","no","mono","no","18","no","white","no","yes","768","17","17","/home/ubuntu/Desktop/panara/subject-109.csv","Jazzy James","3.1.3","4.1.3.wav","4.1.1.wav","4.1.1.wav","0","1","NA","1","NA","852","NA","852","NA","2901638","space","2","1024","2","48000","-16","experiment","4.1.1.wav","4.1.3.wav","4.1.1.wav","109","odd","3004971","3007436","3006936","3006211","NA","NA","3003971","3008149","712","NA","NA","3003969","3009001","NA","3003969","2902352","NA","3003971","714","New experiment","NA","0","0","0","yes","1024"
"undefined","undefined","undefined","undefined","black","no","legacy","0","uniform","undefined","undefined","undefined","18","18","37","18","18","NA","18","18","0","0","0","18","18","0","18","0","NA","18","0","Tue 02 Jul 2019 12:14:51 PM PDT","500","1000","The main experiment item","yes","NA","ABX_v3.osexp","/home/ubuntu/Desktop/panara","no","no","mono","no","18","no","white","no","yes","768","18","18","/home/ubuntu/Desktop/panara/subject-109.csv","Jazzy James","3.1.3","3.1.1.wav","3.1.3.wav","3.1.3.wav","0","1","NA","1","NA","2900","NA","2900","NA","2901638","space","2","1024","2","48000","-16","experiment","3.1.1.wav","3.1.3.wav","3.1.3.wav","109","odd","3010221","3012703","3012203","3011459","NA","NA","3009221","3013461","712","NA","NA","3009218","3016361","NA","3009218","2902352","NA","3009221","714","New experiment","NA","0","0","0","yes","1024"
"undefined","undefined","undefined","undefined","black","no","legacy","0","uniform","undefined","undefined","undefined","19","19","39","19","19","NA","19","19","0","0","0","19","19","0","19","0","NA","19","0","Tue 02 Jul 2019 12:14:51 PM PDT","500","1000","The main experiment item","yes","NA","ABX_v3.osexp","/home/ubuntu/Desktop/panara","yes","no","mono","no","18","no","white","no","yes","768","19","19","/home/ubuntu/Desktop/panara/subject-109.csv","Jazzy James","3.1.3","4.2.5.wav","4.2.5.wav","4.2.3.wav","0","1","NA","1","NA","851","NA","851","NA","2901638","space","2","1024","2","48000","-16","experiment","4.2.3.wav","4.2.5.wav","4.2.5.wav","109","odd","3017537","3019974","3019474","3018764","NA","NA","3016537","3020718","712","NA","NA","3016534","3021569","NA","3016534","2902352","NA","3016537","714","New experiment","NA","0","0","0","yes","1024"
"undefined","undefined","undefined","undefined","black","no","legacy","0","uniform","undefined","undefined","undefined","20","20","41","20","20","NA","20","20","0","0","0","20","20","0","20","0","NA","20","0","Tue 02 Jul 2019 12:14:51 PM PDT","500","1000","The main experiment item","yes","NA","ABX_v3.osexp","/home/ubuntu/Desktop/panara","no","no","mono","no","18","no","white","no","yes","768","20","20","/home/ubuntu/Desktop/panara/subject-109.csv","Jazzy James","3.1.3","2.1.3.wav","2.1.3.wav","2.1.5.wav","0","1","NA","1","NA","775","NA","775","NA","2901638","space","2","1024","2","48000","-16","experiment","2.1.3.wav","2.1.5.wav","2.1.3.wav","109","odd","3022750","3025243","3024743","3024011","NA","NA","3021749","3026280","712","NA","NA","3021746","3027056","NA","3021746","2902352","NA","3021750","714","New experiment","NA","0","0","0","yes","1024"
"undefined","undefined","undefined","undefined","black","no","legacy","0","uniform","undefined","undefined","undefined","21","21","43","21","21","NA","21","21","0","0","0","21","21","0","21","0","NA","21","0","Tue 02 Jul 2019 12:14:51 PM PDT","500","1000","The main experiment item","yes","NA","ABX_v3.osexp","/home/ubuntu/Desktop/panara","no","no","mono","no","18","no","white","no","yes","768","21","21","/home/ubuntu/Desktop/panara/subject-109.csv","Jazzy James","3.1.3","1.2.3.wav","1.2.3.wav","1.2.5.wav","0","1","NA","1","NA","1029","NA","1029","NA","2901638","space","2","1024","2","48000","-16","experiment","1.2.3.wav","1.2.5.wav","1.2.3.wav","109","odd","3028214","3030763","3030263","3029484","NA","NA","3027213","3031539","712","NA","NA","3027210","3032569","NA","3027210","2902352","NA","3027214","714","New experiment","NA","0","0","0","yes","1024"
"undefined","undefined","undefined","undefined","black","no","legacy","0","uniform","undefined","undefined","undefined","22","22","45","22","22","NA","22","22","0","0","0","22","22","0","22","0","NA","22","0","Tue 02 Jul 2019 12:14:51 PM PDT","500","1000","The main experiment item","yes","NA","ABX_v3.osexp","/home/ubuntu/Desktop/panara","yes","no","mono","no","18","no","white","no","yes","768","22","22","/home/ubuntu/Desktop/panara/subject-109.csv","Jazzy James","3.1.3","2.2.4.wav","2.2.2.wav","2.2.2.wav","0","1","NA","1","NA","2056","NA","2056","NA","2901638","space","2","1024","2","48000","-16","experiment","2.2.2.wav","2.2.4.wav","2.2.2.wav","109","odd","3033798","3036267","3035767","3035044","NA","NA","3032797","3036991","712","NA","NA","3032794","3039047","NA","3032794","2902352","NA","3032798","714","New experiment","NA","0","0","0","yes","1024"
"undefined","undefined","undefined","undefined","black","no","legacy","0","uniform","undefined","undefined","undefined","23","23","47","23","23","NA","23","23","0","0","0","23","23","0","23","0","NA","23","0","Tue 02 Jul 2019 12:14:51 PM PDT","500","1000","The main experiment item","yes","NA","ABX_v3.osexp","/home/ubuntu/Desktop/panara","yes","no","mono","no","18","no","white","no","yes","768","23","23","/home/ubuntu/Desktop/panara/subject-109.csv","Jazzy James","3.1.3","3.2.3.wav","3.2.3.wav","3.2.1.wav","0","0","NA","0","NA","836","NA","836","NA","2901638","space","2","1024","2","48000","-16","experiment","3.2.1.wav","3.2.3.wav","3.2.3.wav","109","odd","3040233","3042743","3042243","3041495","NA","NA","3039232","3043499","712","NA","NA","3039230","3044336","NA","3039230","2902352","NA","3039233","714","New experiment","NA","0","0","0","yes","1024"
"undefined","undefined","undefined","undefined","black","no","legacy","0","uniform","undefined","undefined","undefined","24","24","49","24","24","NA","24","24","0","0","0","24","24","0","24","0","NA","24","0","Tue 02 Jul 2019 12:14:51 PM PDT","500","1000","The main experiment item","yes","NA","ABX_v3.osexp","/home/ubuntu/Desktop/panara","no","no","mono","no","18","no","white","no","yes","768","24","24","/home/ubuntu/Desktop/panara/subject-109.csv","Jazzy James","3.1.3","3.2.2.wav","3.2.4.wav","3.2.4.wav","0","1","NA","1","NA","2220","NA","2220","NA","2901638","space","2","1024","2","48000","-16","experiment","3.2.2.wav","3.2.4.wav","3.2.4.wav","109","odd","3045534","3048065","3047565","3046811","NA","NA","3044533","3048818","712","NA","NA","3044531","3051039","NA","3044531","2902352","NA","3044534","714","New experiment","NA","0","0","0","yes","1024"
"undefined","undefined","undefined","undefined","black","no","legacy","0","uniform","undefined","undefined","undefined","25","25","51","25","25","NA","25","25","0","0","0","25","25","0","25","0","NA","25","0","Tue 02 Jul 2019 12:14:51 PM PDT","500","1000","The main experiment item","yes","NA","ABX_v3.osexp","/home/ubuntu/Desktop/panara","yes","no","mono","no","18","no","white","no","yes","768","25","25","/home/ubuntu/Desktop/panara/subject-109.csv","Jazzy James","3.1.3","3.2.5.wav","3.2.3.wav","3.2.3.wav","0","0","NA","0","NA","1575","NA","1575","NA","2901638","space","2","1024","2","48000","-16","experiment","3.2.3.wav","3.2.5.wav","3.2.3.wav","109","odd","3052221","3054746","3054246","3053496","NA","NA","3051220","3055503","712","NA","NA","3051218","3057078","NA","3051218","2902352","NA","3051221","714","New experiment","NA","0","0","0","yes","1024"
"undefined","undefined","undefined","undefined","black","no","legacy","0","uniform","undefined","undefined","undefined","26","26","53","26","26","NA","26","26","0","0","0","26","26","0","26","0","NA","26","0","Tue 02 Jul 2019 12:14:51 PM PDT","500","1000","The main experiment item","yes","NA","ABX_v3.osexp","/home/ubuntu/Desktop/panara","yes","no","mono","no","18","no","white","no","yes","768","26","26","/home/ubuntu/Desktop/panara/subject-109.csv","Jazzy James","3.1.3","1.2.3.wav","1.2.1.wav","1.2.1.wav","0","1","NA","1","NA","2133","NA","2133","NA","2901638","space","2","1024","2","48000","-16","experiment","1.2.1.wav","1.2.3.wav","1.2.1.wav","109","odd","3058259","3060834","3060334","3059554","NA","NA","3057259","3061609","712","NA","NA","3057256","3063743","NA","3057256","2902352","NA","3057259","714","New experiment","NA","0","0","0","yes","1024"
"undefined","undefined","undefined","undefined","black","no","legacy","0","uniform","undefined","undefined","undefined","27","27","55","27","27","NA","27","27","0","0","0","27","27","0","27","0","NA","27","0","Tue 02 Jul 2019 12:14:51 PM PDT","500","1000","The main experiment item","yes","NA","ABX_v3.osexp","/home/ubuntu/Desktop/panara","no","no","mono","no","18","no","white","no","yes","768","27","27","/home/ubuntu/Desktop/panara/subject-109.csv","Jazzy James","3.1.3","2.1.3.wav","2.1.5.wav","2.1.5.wav","0","0","NA","0","NA","428","NA","428","NA","2901638","space","2","1024","2","48000","-16","experiment","2.1.3.wav","2.1.5.wav","2.1.5.wav","109","odd","3064919","3067433","3066933","3066181","NA","NA","3063919","3068186","712","NA","NA","3063917","3068615","NA","3063917","2902352","NA","3063919","714","New experiment","NA","0","0","0","yes","1024"
"undefined","undefined","undefined","undefined","black","no","legacy","0","uniform","undefined","undefined","undefined","28","28","57","28","28","NA","28","28","0","0","0","28","28","0","28","0","NA","28","0","Tue 02 Jul 2019 12:14:51 PM PDT","500","1000","The main experiment item","yes","NA","ABX_v3.osexp","/home/ubuntu/Desktop/panara","no","no","mono","no","18","no","white","no","yes","768","28","28","/home/ubuntu/Desktop/panara/subject-109.csv","Jazzy James","3.1.3","3.1.1.wav","3.1.1.wav","3.1.3.wav","0","0","NA","0","NA","1612","NA","1612","NA","2901638","space","2","1024","2","48000","-16","experiment","3.1.1.wav","3.1.3.wav","3.1.1.wav","109","odd","3069791","3072290","3071790","3071038","NA","NA","3068791","3073042","712","NA","NA","3068788","3074654","NA","3068788","2902352","NA","3068791","714","New experiment","NA","0","0","0","yes","1024"
"undefined","undefined","undefined","undefined","black","no","legacy","0","uniform","undefined","undefined","undefined","29","29","59","29","29","NA","29","29","0","0","0","29","29","0","29","0","NA","29","0","Tue 02 Jul 2019 12:14:51 PM PDT","500","1000","The main experiment item","yes","NA","ABX_v3.osexp","/home/ubuntu/Desktop/panara","yes","no","mono","no","18","no","white","no","yes","768","29","29","/home/ubuntu/Desktop/panara/subject-109.csv","Jazzy James","3.1.3","3.1.5.wav","3.1.3.wav","3.1.3.wav","0","1","NA","1","NA","1010","NA","1010","NA","2901638","space","2","1024","2","48000","-16","experiment","3.1.3.wav","3.1.5.wav","3.1.3.wav","109","odd","3075777","3078315","3077815","3077061","NA","NA","3074776","3079066","712","NA","NA","3074774","3080077","NA","3074773","2902352","NA","3074777","714","New experiment","NA","0","0","0","yes","1024"
"undefined","undefined","undefined","undefined","black","no","legacy","0","uniform","undefined","undefined","undefined","30","30","61","30","30","NA","30","30","0","0","0","30","30","0","30","0","NA","30","0","Tue 02 Jul 2019 12:14:51 PM PDT","500","1000","The main experiment item","yes","NA","ABX_v3.osexp","/home/ubuntu/Desktop/panara","no","no","mono","no","18","no","white","no","yes","768","30","30","/home/ubuntu/Desktop/panara/subject-109.csv","Jazzy James","3.1.3","2.2.1.wav","2.2.3.wav","2.2.3.wav","0","0","NA","0","NA","1428","NA","1428","NA","2901638","space","2","1024","2","48000","-16","experiment","2.2.1.wav","2.2.3.wav","2.2.3.wav","109","odd","3081245","3083731","3083231","3082486","NA","NA","3080245","3084449","712","NA","NA","3080243","3085878","NA","3080243","2902352","NA","3080245","714","New experiment","NA","0","0","0","yes","1024"
"undefined","undefined","undefined","undefined","black","no","legacy","0","uniform","undefined","undefined","undefined","31","31","63","31","31","NA","31","31","0","0","0","31","31","0","31","0","NA","31","0","Tue 02 Jul 2019 12:14:51 PM PDT","500","1000","The main experiment item","yes","NA","ABX_v3.osexp","/home/ubuntu/Desktop/panara","no","no","mono","no","18","no","white","no","yes","768","31","31","/home/ubuntu/Desktop/panara/subject-109.csv","Jazzy James","3.1.3","2.1.2.wav","2.1.2.wav","2.1.4.wav","0","0","NA","0","NA","1601","NA","1601","NA","2901638","space","2","1024","2","48000","-16","experiment","2.1.2.wav","2.1.4.wav","2.1.2.wav","109","odd","3087054","3089786","3089286","3088302","NA","NA","3086054","3090555","712","NA","NA","3086051","3092156","NA","3086051","2902352","NA","3086054","714","New experiment","NA","0","0","0","yes","1024"
"undefined","undefined","undefined","undefined","black","no","legacy","0","uniform","undefined","undefined","undefined","32","32","65","32","32","NA","32","32","0","0","0","32","32","0","32","0","NA","32","0","Tue 02 Jul 2019 12:14:51 PM PDT","500","1000","The main experiment item","yes","NA","ABX_v3.osexp","/home/ubuntu/Desktop/panara","yes","no","mono","no","18","no","white","no","yes","768","32","32","/home/ubuntu/Desktop/panara/subject-109.csv","Jazzy James","3.1.3","2.2.5.wav","2.2.3.wav","2.2.3.wav","0","0","NA","0","NA","587","NA","587","NA","2901638","space","2","1024","2","48000","-16","experiment","2.2.3.wav","2.2.5.wav","2.2.3.wav","109","odd","3093337","3095793","3095293","3094576","NA","NA","3092337","3096512","712","NA","NA","3092334","3097100","NA","3092334","2902352","NA","3092337","714","New experiment","NA","0","0","0","yes","1024"
"undefined","undefined","undefined","undefined","black","no","legacy","0","uniform","undefined","undefined","undefined","33","33","67","33","33","NA","33","33","0","0","0","33","33","0","33","0","NA","33","0","Tue 02 Jul 2019 12:14:51 PM PDT","500","1000","The main experiment item","yes","NA","ABX_v3.osexp","/home/ubuntu/Desktop/panara","yes","no","mono","no","18","no","white","no","yes","768","33","33","/home/ubuntu/Desktop/panara/subject-109.csv","Jazzy James","3.1.3","1.1.3.wav","1.1.3.wav","1.1.1.wav","0","0","NA","0","NA","1633","NA","1633","NA","2901638","space","2","1024","2","48000","-16","experiment","1.1.1.wav","1.1.3.wav","1.1.3.wav","109","odd","3098264","3100845","3100345","3099573","NA","NA","3097264","3101627","712","NA","NA","3097261","3103261","NA","3097261","2902352","NA","3097264","714","New experiment","NA","0","0","0","yes","1024"
"undefined","undefined","undefined","undefined","black","no","legacy","0","uniform","undefined","undefined","undefined","34","34","69","34","34","NA","34","34","0","0","0","34","34","0","34","0","NA","34","0","Tue 02 Jul 2019 12:14:51 PM PDT","500","1000","The main experiment item","yes","NA","ABX_v3.osexp","/home/ubuntu/Desktop/panara","yes","no","mono","no","18","no","white","no","yes","768","34","34","/home/ubuntu/Desktop/panara/subject-109.csv","Jazzy James","3.1.3","5.2.3.wav","5.2.1.wav","5.2.1.wav","0","1","NA","1","NA","2294","NA","2294","NA","2901638","space","2","1024","2","48000","-16","experiment","5.2.1.wav","5.2.3.wav","5.2.1.wav","109","odd","3104431","3106907","3106407","3105695","NA","NA","3103431","3107630","712","NA","NA","3103428","3109924","NA","3103428","2902352","NA","3103431","714","New experiment","NA","0","0","0","yes","1024"
"undefined","undefined","undefined","undefined","black","no","legacy","0","uniform","undefined","undefined","undefined","35","35","71","35","35","NA","35","35","0","0","0","35","35","0","35","0","NA","35","0","Tue 02 Jul 2019 12:14:51 PM PDT","500","1000","The main experiment item","yes","NA","ABX_v3.osexp","/home/ubuntu/Desktop/panara","yes","no","mono","no","18","no","white","no","yes","768","35","35","/home/ubuntu/Desktop/panara/subject-109.csv","Jazzy James","3.1.3","2.2.3.wav","2.2.1.wav","2.2.1.wav","0","0","NA","0","NA","480","NA","480","NA","2901638","space","2","1024","2","48000","-16","experiment","2.2.1.wav","2.2.3.wav","2.2.1.wav","109","odd","3111105","3113605","3113105","3112364","NA","NA","3110104","3114339","712","NA","NA","3110102","3114820","NA","3110102","2902352","NA","3110105","714","New experiment","NA","0","0","0","yes","1024"
"undefined","undefined","undefined","undefined","black","no","legacy","0","uniform","undefined","undefined","undefined","36","36","73","36","36","NA","36","36","0","0","0","36","36","0","36","0","NA","36","0","Tue 02 Jul 2019 12:14:51 PM PDT","500","1000","The main experiment item","yes","NA","ABX_v3.osexp","/home/ubuntu/Desktop/panara","yes","no","mono","no","18","no","white","no","yes","768","36","36","/home/ubuntu/Desktop/panara/subject-109.csv","Jazzy James","3.1.3","2.1.4.wav","2.1.4.wav","2.1.2.wav","0","1","NA","1","NA","2760","NA","2760","NA","2901638","space","2","1024","2","48000","-16","experiment","2.1.2.wav","2.1.4.wav","2.1.4.wav","109","odd","3115990","3118516","3118016","3117252","NA","NA","3114989","3119250","712","NA","NA","3114986","3122011","NA","3114986","2902352","NA","3114990","714","New experiment","NA","0","0","0","yes","1024"
"undefined","undefined","undefined","undefined","black","no","legacy","0","uniform","undefined","undefined","undefined","37","37","75","37","37","NA","37","37","0","0","0","37","37","0","37","0","NA","37","0","Tue 02 Jul 2019 12:14:51 PM PDT","500","1000","The main experiment item","yes","NA","ABX_v3.osexp","/home/ubuntu/Desktop/panara","yes","no","mono","no","18","no","white","no","yes","768","37","37","/home/ubuntu/Desktop/panara/subject-109.csv","Jazzy James","3.1.3","1.2.5.wav","1.2.5.wav","1.2.3.wav","0","0","NA","0","NA","856","NA","856","NA","2901638","space","2","1024","2","48000","-16","experiment","1.2.3.wav","1.2.5.wav","1.2.5.wav","109","odd","3123204","3125759","3125259","3124488","NA","NA","3122203","3126547","712","NA","NA","3122201","3127403","NA","3122201","2902352","NA","3122203","714","New experiment","NA","0","0","0","yes","1024"
"undefined","undefined","undefined","undefined","black","no","legacy","0","uniform","undefined","undefined","undefined","38","38","77","38","38","NA","38","38","0","0","0","38","38","0","38","0","NA","38","0","Tue 02 Jul 2019 12:14:51 PM PDT","500","1000","The main experiment item","yes","NA","ABX_v3.osexp","/home/ubuntu/Desktop/panara","no","no","mono","no","18","no","white","no","yes","768","38","38","/home/ubuntu/Desktop/panara/subject-109.csv","Jazzy James","3.1.3","3.2.2.wav","3.2.2.wav","3.2.4.wav","0","0","NA","0","NA","1554","NA","1554","NA","2901638","space","2","1024","2","48000","-16","experiment","3.2.2.wav","3.2.4.wav","3.2.2.wav","109","odd","3128567","3131145","3130645","3129856","NA","NA","3127566","3131880","712","NA","NA","3127564","3133435","NA","3127564","2902352","NA","3127567","714","New experiment","NA","0","0","0","yes","1024"
"undefined","undefined","undefined","undefined","black","no","legacy","0","uniform","undefined","undefined","undefined","39","39","79","39","39","NA","39","39","0","0","0","39","39","0","39","0","NA","39","0","Tue 02 Jul 2019 12:14:51 PM PDT","500","1000","The main experiment item","yes","NA","ABX_v3.osexp","/home/ubuntu/Desktop/panara","yes","no","mono","no","18","no","white","no","yes","768","39","39","/home/ubuntu/Desktop/panara/subject-109.csv","Jazzy James","3.1.3","1.1.4.wav","1.1.4.wav","1.1.2.wav","0","1","NA","1","NA","828","NA","828","NA","2901638","space","2","1024","2","48000","-16","experiment","1.1.2.wav","1.1.4.wav","1.1.4.wav","109","odd","3134658","3137225","3136725","3135936","NA","NA","3133658","3137998","712","NA","NA","3133656","3138827","NA","3133656","2902352","NA","3133658","714","New experiment","NA","0","0","0","yes","1024"
"undefined","undefined","undefined","undefined","black","no","legacy","0","uniform","undefined","undefined","undefined","40","40","81","40","40","NA","40","40","0","0","0","40","40","0","40","0","NA","40","0","Tue 02 Jul 2019 12:14:51 PM PDT","500","1000","The main experiment item","yes","NA","ABX_v3.osexp","/home/ubuntu/Desktop/panara","yes","no","mono","no","18","no","white","no","yes","768","40","40","/home/ubuntu/Desktop/panara/subject-109.csv","Jazzy James","3.1.3","4.2.3.wav","4.2.3.wav","4.2.1.wav","0","1","NA","1","NA","2172","NA","2172","NA","2901638","space","2","1024","2","48000","-16","experiment","4.2.1.wav","4.2.3.wav","4.2.3.wav","109","odd","3139981","3142472","3141972","3141217","NA","NA","3138981","3143190","712","NA","NA","3138978","3145362","NA","3138978","2902352","NA","3138981","714","New experiment","NA","0","0","0","yes","1024"
"undefined","undefined","undefined","undefined","black","no","legacy","0","uniform","undefined","undefined","undefined","41","41","83","41","41","NA","41","41","0","0","0","41","41","0","41","0","NA","41","0","Tue 02 Jul 2019 12:14:51 PM PDT","500","1000","The main experiment item","yes","NA","ABX_v3.osexp","/home/ubuntu/Desktop/panara","yes","no","mono","no","18","no","white","no","yes","768","41","41","/home/ubuntu/Desktop/panara/subject-109.csv","Jazzy James","3.1.3","1.2.4.wav","1.2.2.wav","1.2.2.wav","0","1","NA","1","NA","1505","NA","1505","NA","2901638","space","2","1024","2","48000","-16","experiment","1.2.2.wav","1.2.4.wav","1.2.2.wav","109","odd","3146572","3149076","3148576","3147797","NA","NA","3145572","3149840","712","NA","NA","3145569","3151346","NA","3145569","2902352","NA","3145572","714","New experiment","NA","0","0","0","yes","1024"
"undefined","undefined","undefined","undefined","black","no","legacy","0","uniform","undefined","undefined","undefined","42","42","85","42","42","NA","42","42","0","0","0","42","42","0","42","0","NA","42","0","Tue 02 Jul 2019 12:14:51 PM PDT","500","1000","The main experiment item","yes","NA","ABX_v3.osexp","/home/ubuntu/Desktop/panara","no","no","mono","no","18","no","white","no","yes","768","42","42","/home/ubuntu/Desktop/panara/subject-109.csv","Jazzy James","3.1.3","4.2.3.wav","4.2.3.wav","4.2.5.wav","0","1","NA","1","NA","900","NA","900","NA","2901638","space","2","1024","2","48000","-16","experiment","4.2.3.wav","4.2.5.wav","4.2.3.wav","109","odd","3152488","3154977","3154477","3153732","NA","NA","3151488","3155701","712","NA","NA","3151486","3156602","NA","3151485","2902352","NA","3151488","714","New experiment","NA","0","0","0","yes","1024"
"undefined","undefined","undefined","undefined","black","no","legacy","0","uniform","undefined","undefined","undefined","43","43","87","43","43","NA","43","43","0","0","0","43","43","0","43","0","NA","43","0","Tue 02 Jul 2019 12:14:51 PM PDT","500","1000","The main experiment item","yes","NA","ABX_v3.osexp","/home/ubuntu/Desktop/panara","yes","no","mono","no","18","no","white","no","yes","768","43","43","/home/ubuntu/Desktop/panara/subject-109.csv","Jazzy James","3.1.3","4.1.4.wav","4.1.4.wav","4.1.2.wav","0","0","NA","0","NA","1979","NA","1979","NA","2901638","space","2","1024","2","48000","-16","experiment","4.1.2.wav","4.1.4.wav","4.1.4.wav","109","odd","3157757","3160209","3159709","3158988","NA","NA","3156756","3160934","712","NA","NA","3156753","3162913","NA","3156753","2902352","NA","3156757","714","New experiment","NA","0","0","0","yes","1024"
"undefined","undefined","undefined","undefined","black","no","legacy","0","uniform","undefined","undefined","undefined","44","44","89","44","44","NA","44","44","0","0","0","44","44","0","44","0","NA","44","0","Tue 02 Jul 2019 12:14:51 PM PDT","500","1000","The main experiment item","yes","NA","ABX_v3.osexp","/home/ubuntu/Desktop/panara","no","no","mono","no","18","no","white","no","yes","768","44","44","/home/ubuntu/Desktop/panara/subject-109.csv","Jazzy James","3.1.3","5.2.3.wav","5.2.5.wav","5.2.5.wav","0","0","NA","0","NA","861","NA","861","NA","2901638","space","2","1024","2","48000","-16","experiment","5.2.3.wav","5.2.5.wav","5.2.5.wav","109","odd","3164041","3166501","3166001","3165279","NA","NA","3163041","3167234","712","NA","NA","3163038","3168096","NA","3163038","2902352","NA","3163041","714","New experiment","NA","0","0","0","yes","1024"
"undefined","undefined","undefined","undefined","black","no","legacy","0","uniform","undefined","undefined","undefined","45","45","91","45","45","NA","45","45","0","0","0","45","45","0","45","0","NA","45","0","Tue 02 Jul 2019 12:14:51 PM PDT","500","1000","The main experiment item","yes","NA","ABX_v3.osexp","/home/ubuntu/Desktop/panara","no","no","mono","no","18","no","white","no","yes","768","45","45","/home/ubuntu/Desktop/panara/subject-109.csv","Jazzy James","3.1.3","1.1.2.wav","1.1.2.wav","1.1.4.wav","0","0","NA","0","NA","1486","NA","1486","NA","2901638","space","2","1024","2","48000","-16","experiment","1.1.2.wav","1.1.4.wav","1.1.2.wav","109","odd","3169279","3171850","3171350","3170569","NA","NA","3168279","3172625","712","NA","NA","3168276","3174112","NA","3168276","2902352","NA","3168279","714","New experiment","NA","0","0","0","yes","1024"
"undefined","undefined","undefined","undefined","black","no","legacy","0","uniform","undefined","undefined","undefined","46","46","93","46","46","NA","46","46","0","0","0","46","46","0","46","0","NA","46","0","Tue 02 Jul 2019 12:14:51 PM PDT","500","1000","The main experiment item","yes","NA","ABX_v3.osexp","/home/ubuntu/Desktop/panara","yes","no","mono","no","18","no","white","no","yes","768","46","46","/home/ubuntu/Desktop/panara/subject-109.csv","Jazzy James","3.1.3","4.2.4.wav","4.2.4.wav","4.2.2.wav","0","1","NA","1","NA","1228","NA","1228","NA","2901638","space","2","1024","2","48000","-16","experiment","4.2.2.wav","4.2.4.wav","4.2.4.wav","109","odd","3175274","3177759","3177259","3176506","NA","NA","3174274","3178484","712","NA","NA","3174271","3179712","NA","3174271","2902352","NA","3174274","714","New experiment","NA","0","0","0","yes","1024"
"undefined","undefined","undefined","undefined","black","no","legacy","0","uniform","undefined","undefined","undefined","47","47","95","47","47","NA","47","47","0","0","0","47","47","0","47","0","NA","47","0","Tue 02 Jul 2019 12:14:51 PM PDT","500","1000","The main experiment item","yes","NA","ABX_v3.osexp","/home/ubuntu/Desktop/panara","yes","no","mono","no","18","no","white","no","yes","768","47","47","/home/ubuntu/Desktop/panara/subject-109.csv","Jazzy James","3.1.3","5.2.4.wav","5.2.2.wav","5.2.2.wav","0","0","NA","0","NA","2069","NA","2069","NA","2901638","space","2","1024","2","48000","-16","experiment","5.2.2.wav","5.2.4.wav","5.2.2.wav","109","odd","3180934","3183413","3182913","3182189","NA","NA","3179934","3184121","712","NA","NA","3179931","3186191","NA","3179931","2902352","NA","3179934","714","New experiment","NA","0","0","0","yes","1024"
"undefined","undefined","undefined","undefined","black","no","legacy","0","uniform","undefined","undefined","undefined","48","48","97","48","48","NA","48","48","0","0","0","48","48","0","48","0","NA","48","0","Tue 02 Jul 2019 12:14:51 PM PDT","500","1000","The main experiment item","yes","NA","ABX_v3.osexp","/home/ubuntu/Desktop/panara","yes","no","mono","no","18","no","white","no","yes","768","48","48","/home/ubuntu/Desktop/panara/subject-109.csv","Jazzy James","3.1.3","5.2.4.wav","5.2.4.wav","5.2.2.wav","0","1","NA","1","NA","743","NA","743","NA","2901638","space","2","1024","2","48000","-16","experiment","5.2.2.wav","5.2.4.wav","5.2.4.wav","109","odd","3187362","3189868","3189368","3188617","NA","NA","3186361","3190608","712","NA","NA","3186359","3191352","NA","3186359","2902352","NA","3186361","714","New experiment","NA","0","0","0","yes","1024"
"undefined","undefined","undefined","undefined","black","no","legacy","0","uniform","undefined","undefined","undefined","49","49","99","49","49","NA","49","49","0","0","0","49","49","0","49","0","NA","49","0","Tue 02 Jul 2019 12:14:51 PM PDT","500","1000","The main experiment item","yes","NA","ABX_v3.osexp","/home/ubuntu/Desktop/panara","no","no","mono","no","18","no","white","no","yes","768","49","49","/home/ubuntu/Desktop/panara/subject-109.csv","Jazzy James","3.1.3","1.2.1.wav","1.2.3.wav","1.2.3.wav","0","1","NA","1","NA","1552","NA","1552","NA","2901638","space","2","1024","2","48000","-16","experiment","1.2.1.wav","1.2.3.wav","1.2.3.wav","109","odd","3192514","3195087","3194587","3193807","NA","NA","3191514","3195863","712","NA","NA","3191512","3197415","NA","3191511","2902352","NA","3191514","714","New experiment","NA","0","0","0","yes","1024"
"undefined","undefined","undefined","undefined","black","no","legacy","0","uniform","undefined","undefined","undefined","50","50","101","50","50","NA","50","50","0","0","0","50","50","0","50","0","NA","50","0","Tue 02 Jul 2019 12:14:51 PM PDT","500","1000","The main experiment item","yes","NA","ABX_v3.osexp","/home/ubuntu/Desktop/panara","no","no","mono","no","18","no","white","no","yes","768","50","50","/home/ubuntu/Desktop/panara/subject-109.csv","Jazzy James","3.1.3","1.1.3.wav","1.1.3.wav","1.1.5.wav","0","1","space","1","NA","746","9803","746","NA","2901638","space","2","1024","2","48000","-16","experiment","1.1.3.wav","1.1.5.wav","1.1.3.wav","109","odd","3208329","3210908","3210408","3209629","3197523","NA","3207329","3211692","712","NA","NA","3197521","3212438","NA","3197521","2902352","NA","3207329","714","New experiment","NA","0","0","0","yes","1024"
"undefined","undefined","undefined","undefined","black","no","legacy","0","uniform","undefined","undefined","undefined","51","51","103","51","51","NA","51","51","0","0","0","51","51","0","51","0","NA","51","0","Tue 02 Jul 2019 12:14:51 PM PDT","500","1000","The main experiment item","yes","NA","ABX_v3.osexp","/home/ubuntu/Desktop/panara","yes","no","mono","no","18","no","white","no","yes","768","51","51","/home/ubuntu/Desktop/panara/subject-109.csv","Jazzy James","3.1.3","2.1.3.wav","2.1.3.wav","2.1.1.wav","0","1","space","1","NA","805","9803","805","NA","2901638","space","2","1024","2","48000","-16","experiment","2.1.1.wav","2.1.3.wav","2.1.3.wav","109","odd","3213639","3216136","3215636","3214883","3197523","NA","3212638","3216889","712","NA","NA","3212636","3217694","NA","3212636","2902352","NA","3212639","714","New experiment","NA","0","0","0","yes","1024"
"undefined","undefined","undefined","undefined","black","no","legacy","0","uniform","undefined","undefined","undefined","52","52","105","52","52","NA","52","52","0","0","0","52","52","0","52","0","NA","52","0","Tue 02 Jul 2019 12:14:51 PM PDT","500","1000","The main experiment item","yes","NA","ABX_v3.osexp","/home/ubuntu/Desktop/panara","yes","no","mono","no","18","no","white","no","yes","768","52","52","/home/ubuntu/Desktop/panara/subject-109.csv","Jazzy James","3.1.3","3.2.3.wav","3.2.1.wav","3.2.1.wav","0","0","space","0","NA","1515","9803","1515","NA","2901638","space","2","1024","2","48000","-16","experiment","3.2.1.wav","3.2.3.wav","3.2.1.wav","109","odd","3218856","3221368","3220868","3220117","3197523","NA","3217856","3222122","712","NA","NA","3217853","3223638","NA","3217853","2902352","NA","3217856","714","New experiment","NA","0","0","0","yes","1024"
"undefined","undefined","undefined","undefined","black","no","legacy","0","uniform","undefined","undefined","undefined","53","53","107","53","53","NA","53","53","0","0","0","53","53","0","53","0","NA","53","0","Tue 02 Jul 2019 12:14:51 PM PDT","500","1000","The main experiment item","yes","NA","ABX_v3.osexp","/home/ubuntu/Desktop/panara","yes","no","mono","no","18","no","white","no","yes","768","53","53","/home/ubuntu/Desktop/panara/subject-109.csv","Jazzy James","3.1.3","1.2.4.wav","1.2.4.wav","1.2.2.wav","0","1","space","1","NA","1060","9803","1060","NA","2901638","space","2","1024","2","48000","-16","experiment","1.2.2.wav","1.2.4.wav","1.2.4.wav","109","odd","3224797","3227314","3226814","3226062","3197523","NA","3223797","3228096","712","NA","NA","3223794","3229156","NA","3223794","2902352","NA","3223797","714","New experiment","NA","0","0","0","yes","1024"
"undefined","undefined","undefined","undefined","black","no","legacy","0","uniform","undefined","undefined","undefined","54","54","109","54","54","NA","54","54","0","0","0","54","54","0","54","0","NA","54","0","Tue 02 Jul 2019 12:14:51 PM PDT","500","1000","The main experiment item","yes","NA","ABX_v3.osexp","/home/ubuntu/Desktop/panara","no","no","mono","no","18","no","white","no","yes","768","0","53","/home/ubuntu/Desktop/panara/subject-109.csv","Jazzy James","3.1.3","2.2.3.wav","2.2.5.wav","1.2.5.wav","0","0","space","0","NA","748","9803","748","NA","2901638","space","2","1024","2","48000","-16","experiment","2.2.3.wav","1.2.5.wav","2.2.5.wav","109","odd","3230337","3232817","3232317","3231580","3197523","NA","3229336","3233593","712","NA","NA","3229334","3234341","3229269","3229333","2902352","NA","3229336","714","New experiment","NA","0","0","0","yes","1024"
"undefined","undefined","undefined","undefined","black","no","legacy","0","uniform","undefined","undefined","undefined","55","55","111","55","55","NA","55","55","0","0","0","55","55","0","55","0","NA","55","0","Tue 02 Jul 2019 12:14:51 PM PDT","500","1000","The main experiment item","yes","NA","ABX_v3.osexp","/home/ubuntu/Desktop/panara","no","no","mono","no","18","no","white","no","yes","768","1","53","/home/ubuntu/Desktop/panara/subject-109.csv","Jazzy James","3.1.3","1.1.1.wav","1.2.1.wav","1.2.3.wav","0","1","space","1","NA","2778","9803","2778","NA","2901638","space","2","1024","2","48000","-16","experiment","1.1.1.wav","1.2.3.wav","1.2.1.wav","109","odd","3235500","3238099","3237599","3236821","3197523","NA","3234500","3238882","712","NA","NA","3234497","3241661","3229269","3234497","2902352","NA","3234500","714","New experiment","NA","0","0","0","yes","1024"
"undefined","undefined","undefined","undefined","black","no","legacy","0","uniform","undefined","undefined","undefined","56","56","113","56","56","NA","56","56","0","0","0","56","56","0","56","0","NA","56","0","Tue 02 Jul 2019 12:14:51 PM PDT","500","1000","The main experiment item","yes","NA","ABX_v3.osexp","/home/ubuntu/Desktop/panara","yes","no","mono","no","18","no","white","no","yes","768","2","53","/home/ubuntu/Desktop/panara/subject-109.csv","Jazzy James","3.1.3","3.2.3.wav","3.2.1.wav","4.2.1.wav","0","0","space","0","NA","5561","9803","5561","NA","2901638","space","2","1024","2","48000","-16","experiment","4.2.1.wav","3.2.3.wav","3.2.1.wav","109","odd","3242852","3245353","3244853","3244102","3197523","NA","3241851","3246099","712","NA","NA","3241849","3251660","3229269","3241849","2902352","NA","3241852","714","New experiment","NA","0","0","0","yes","1024"
"undefined","undefined","undefined","undefined","black","no","legacy","0","uniform","undefined","undefined","undefined","57","57","115","57","57","NA","57","57","0","0","0","57","57","0","57","0","NA","57","0","Tue 02 Jul 2019 12:14:51 PM PDT","500","1000","The main experiment item","yes","NA","ABX_v3.osexp","/home/ubuntu/Desktop/panara","yes","no","mono","no","18","no","white","no","yes","768","3","53","/home/ubuntu/Desktop/panara/subject-109.csv","Jazzy James","3.1.3","3.2.4.wav","3.2.2.wav","1.2.2.wav","0","1","space","1","NA","874","9803","874","NA","2901638","space","2","1024","2","48000","-16","experiment","1.2.2.wav","3.2.4.wav","3.2.2.wav","109","odd","3252802","3255322","3254822","3254044","3197523","NA","3251802","3256105","712","NA","NA","3251800","3256980","3229269","3251800","2902352","NA","3251802","714","New experiment","NA","0","0","0","yes","1024"
"undefined","undefined","undefined","undefined","black","no","legacy","0","uniform","undefined","undefined","undefined","58","58","117","58","58","NA","58","58","0","0","0","58","58","0","58","0","NA","58","0","Tue 02 Jul 2019 12:14:51 PM PDT","500","1000","The main experiment item","yes","NA","ABX_v3.osexp","/home/ubuntu/Desktop/panara","yes","no","mono","no","18","no","white","no","yes","768","4","53","/home/ubuntu/Desktop/panara/subject-109.csv","Jazzy James","3.1.3","4.2.4.wav","4.1.4.wav","4.1.2.wav","0","1","space","1","NA","951","9803","951","NA","2901638","space","2","1024","2","48000","-16","experiment","4.1.2.wav","4.2.4.wav","4.1.4.wav","109","odd","3258137","3260597","3260096","3259376","3197523","NA","3257136","3261316","712","NA","NA","3257134","3262268","3229269","3257134","2902352","NA","3257137","714","New experiment","NA","0","0","0","yes","1024"
"undefined","undefined","undefined","undefined","black","no","legacy","0","uniform","undefined","undefined","undefined","59","59","119","59","59","NA","59","59","0","0","0","59","59","0","59","0","NA","59","0","Tue 02 Jul 2019 12:14:51 PM PDT","500","1000","The main experiment item","yes","NA","ABX_v3.osexp","/home/ubuntu/Desktop/panara","no","no","mono","no","18","no","white","no","yes","768","5","53","/home/ubuntu/Desktop/panara/subject-109.csv","Jazzy James","3.1.3","1.1.3.wav","1.1.5.wav","1.2.5.wav","0","1","space","1","NA","2136","9803","2136","NA","2901638","space","2","1024","2","48000","-16","experiment","1.1.3.wav","1.2.5.wav","1.1.5.wav","109","odd","3263446","3266045","3265545","3264764","3197523","NA","3262445","3266819","712","NA","NA","3262443","3268955","3229269","3262443","2902352","NA","3262446","714","New experiment","NA","0","0","0","yes","1024"
"undefined","undefined","undefined","undefined","black","no","legacy","0","uniform","undefined","undefined","undefined","60","60","121","60","60","NA","60","60","0","0","0","60","60","0","60","0","NA","60","0","Tue 02 Jul 2019 12:14:51 PM PDT","500","1000","The main experiment item","yes","NA","ABX_v3.osexp","/home/ubuntu/Desktop/panara","yes","no","mono","no","18","no","white","no","yes","768","6","53","/home/ubuntu/Desktop/panara/subject-109.csv","Jazzy James","3.1.3","1.1.4.wav","1.2.4.wav","1.2.2.wav","0","1","space","1","NA","712","9803","712","NA","2901638","space","2","1024","2","48000","-16","experiment","1.2.2.wav","1.1.4.wav","1.2.4.wav","109","odd","3270127","3272650","3272150","3271401","3197523","NA","3269126","3273433","712","NA","NA","3269123","3274146","3229269","3269123","2902352","NA","3269127","714","New experiment","NA","0","0","0","yes","1024"
"undefined","undefined","undefined","undefined","black","no","legacy","0","uniform","undefined","undefined","undefined","61","61","123","61","61","NA","61","61","0","0","0","61","61","0","61","0","NA","61","0","Tue 02 Jul 2019 12:14:51 PM PDT","500","1000","The main experiment item","yes","NA","ABX_v3.osexp","/home/ubuntu/Desktop/panara","yes","no","mono","no","18","no","white","no","yes","768","7","53","/home/ubuntu/Desktop/panara/subject-109.csv","Jazzy James","3.1.3","3.2.5.wav","3.1.5.wav","3.1.3.wav","0","1","space","1","NA","1262","9803","1262","NA","2901638","space","2","1024","2","48000","-16","experiment","3.1.3.wav","3.2.5.wav","3.1.5.wav","109","odd","3275324","3277884","3277384","3276603","3197523","NA","3274323","3278636","712","NA","NA","3274320","3279899","3229269","3274320","2902352","NA","3274324","714","New experiment","NA","0","0","0","yes","1024"
"undefined","undefined","undefined","undefined","black","no","legacy","0","uniform","undefined","undefined","undefined","62","62","125","62","62","NA","62","62","0","0","0","62","62","0","62","0","NA","62","0","Tue 02 Jul 2019 12:14:51 PM PDT","500","1000","The main experiment item","yes","NA","ABX_v3.osexp","/home/ubuntu/Desktop/panara","yes","no","mono","no","18","no","white","no","yes","768","8","53","/home/ubuntu/Desktop/panara/subject-109.csv","Jazzy James","3.1.3","2.2.3.wav","1.2.3.wav","1.2.1.wav","0","1","space","1","NA","1404","9803","1404","NA","2901638","space","2","1024","2","48000","-16","experiment","1.2.1.wav","2.2.3.wav","1.2.3.wav","109","odd","3281052","3283566","3283066","3282286","3197523","NA","3280052","3284350","712","NA","NA","3280049","3285754","3229269","3280049","2902352","NA","3280052","714","New experiment","NA","0","0","0","yes","1024"
"undefined","undefined","undefined","undefined","black","no","legacy","0","uniform","undefined","undefined","undefined","63","63","127","63","63","NA","63","63","0","0","0","63","63","0","63","0","NA","63","0","Tue 02 Jul 2019 12:14:51 PM PDT","500","1000","The main experiment item","yes","NA","ABX_v3.osexp","/home/ubuntu/Desktop/panara","no","no","mono","no","18","no","white","no","yes","768","9","53","/home/ubuntu/Desktop/panara/subject-109.csv","Jazzy James","3.1.3","2.1.1.wav","2.2.1.wav","2.2.3.wav","0","1","space","1","NA","826","9803","826","NA","2901638","space","2","1024","2","48000","-16","experiment","2.1.1.wav","2.2.3.wav","2.2.1.wav","109","odd","3286913","3289396","3288896","3288174","3197523","NA","3285912","3290151","712","NA","NA","3285910","3290978","3229269","3285910","2902352","NA","3285913","714","New experiment","NA","0","0","0","yes","1024"
"undefined","undefined","undefined","undefined","black","no","legacy","0","uniform","undefined","undefined","undefined","64","64","129","64","64","NA","64","64","0","0","0","64","64","0","64","0","NA","64","0","Tue 02 Jul 2019 12:14:51 PM PDT","500","1000","The main experiment item","yes","NA","ABX_v3.osexp","/home/ubuntu/Desktop/panara","yes","no","mono","no","18","no","white","no","yes","768","10","53","/home/ubuntu/Desktop/panara/subject-109.csv","Jazzy James","3.1.3","2.2.3.wav","2.1.3.wav","2.1.1.wav","0","0","space","0","NA","4050","9803","4050","NA","2901638","space","2","1024","2","48000","-16","experiment","2.1.1.wav","2.2.3.wav","2.1.3.wav","109","odd","3292145","3294629","3294129","3293380","3197523","NA","3291144","3295383","712","NA","NA","3291141","3299433","3229269","3291141","2902352","NA","3291145","714","New experiment","NA","0","0","0","yes","1024"
"undefined","undefined","undefined","undefined","black","no","legacy","0","uniform","undefined","undefined","undefined","65","65","131","65","65","NA","65","65","0","0","0","65","65","0","65","0","NA","65","0","Tue 02 Jul 2019 12:14:51 PM PDT","500","1000","The main experiment item","yes","NA","ABX_v3.osexp","/home/ubuntu/Desktop/panara","no","no","mono","no","18","no","white","no","yes","768","11","53","/home/ubuntu/Desktop/panara/subject-109.csv","Jazzy James","3.1.3","2.1.3.wav","1.1.3.wav","1.1.5.wav","0","1","space","1","NA","759","9803","759","NA","2901638","space","2","1024","2","48000","-16","experiment","2.1.3.wav","1.1.5.wav","1.1.3.wav","109","odd","3300613","3303155","3302655","3301873","3197523","NA","3299612","3303938","712","NA","NA","3299610","3304697","3229269","3299610","2902352","NA","3299613","714","New experiment","NA","0","0","0","yes","1024"
"undefined","undefined","undefined","undefined","black","no","legacy","0","uniform","undefined","undefined","undefined","66","66","133","66","66","NA","66","66","0","0","0","66","66","0","66","0","NA","66","0","Tue 02 Jul 2019 12:14:51 PM PDT","500","1000","The main experiment item","yes","NA","ABX_v3.osexp","/home/ubuntu/Desktop/panara","no","no","mono","no","18","no","white","no","yes","768","12","53","/home/ubuntu/Desktop/panara/subject-109.csv","Jazzy James","3.1.3","1.2.2.wav","1.2.4.wav","3.2.4.wav","0","1","space","1","NA","809","9803","809","NA","2901638","space","2","1024","2","48000","-16","experiment","1.2.2.wav","3.2.4.wav","1.2.4.wav","109","odd","3305852","3308376","3307876","3307123","3197523","NA","3304852","3309127","712","NA","NA","3304850","3309937","3229269","3304850","2902352","NA","3304852","714","New experiment","NA","0","0","0","yes","1024"
"undefined","undefined","undefined","undefined","black","no","legacy","0","uniform","undefined","undefined","undefined","67","67","135","67","67","NA","67","67","0","0","0","67","67","0","67","0","NA","67","0","Tue 02 Jul 2019 12:14:51 PM PDT","500","1000","The main experiment item","yes","NA","ABX_v3.osexp","/home/ubuntu/Desktop/panara","yes","no","mono","no","18","no","white","no","yes","768","13","53","/home/ubuntu/Desktop/panara/subject-109.csv","Jazzy James","3.1.3","2.1.5.wav","2.1.3.wav","4.1.3.wav","0","0","space","0","NA","2362","9803","2362","NA","2901638","space","2","1024","2","48000","-16","experiment","4.1.3.wav","2.1.5.wav","2.1.3.wav","109","odd","3311096","3313600","3313100","3312349","3197523","NA","3310096","3314326","712","NA","NA","3310093","3316689","3229269","3310093","2902352","NA","3310096","714","New experiment","NA","0","0","0","yes","1024"
"undefined","undefined","undefined","undefined","black","no","legacy","0","uniform","undefined","undefined","undefined","68","68","137","68","68","NA","68","68","0","0","0","68","68","0","68","0","NA","68","0","Tue 02 Jul 2019 12:14:51 PM PDT","500","1000","The main experiment item","yes","NA","ABX_v3.osexp","/home/ubuntu/Desktop/panara","no","no","mono","no","18","no","white","no","yes","768","14","53","/home/ubuntu/Desktop/panara/subject-109.csv","Jazzy James","3.1.3","4.1.1.wav","3.1.1.wav","3.1.3.wav","0","0","space","0","NA","2672","9803","2672","NA","2901638","space","2","1024","2","48000","-16","experiment","4.1.1.wav","3.1.3.wav","3.1.1.wav","109","odd","3317869","3320336","3319836","3319090","3197523","NA","3316869","3321096","712","NA","NA","3316867","3323768","3229269","3316867","2902352","NA","3316869","714","New experiment","NA","0","0","0","yes","1024"
"undefined","undefined","undefined","undefined","black","no","legacy","0","uniform","undefined","undefined","undefined","69","69","139","69","69","NA","69","69","0","0","0","69","69","0","69","0","NA","69","0","Tue 02 Jul 2019 12:14:51 PM PDT","500","1000","The main experiment item","yes","NA","ABX_v3.osexp","/home/ubuntu/Desktop/panara","no","no","mono","no","18","no","white","no","yes","768","15","53","/home/ubuntu/Desktop/panara/subject-109.csv","Jazzy James","3.1.3","1.1.3.wav","1.1.5.wav","2.1.5.wav","0","1","space","1","NA","910","9803","910","NA","2901638","space","2","1024","2","48000","-16","experiment","1.1.3.wav","2.1.5.wav","1.1.5.wav","109","odd","3324930","3327510","3327010","3326232","3197523","NA","3323929","3328264","712","NA","NA","3323927","3329175","3229269","3323927","2902352","NA","3323930","714","New experiment","NA","0","0","0","yes","1024"
"undefined","undefined","undefined","undefined","black","no","legacy","0","uniform","undefined","undefined","undefined","70","70","141","70","70","NA","70","70","0","0","0","70","70","0","70","0","NA","70","0","Tue 02 Jul 2019 12:14:51 PM PDT","500","1000","The main experiment item","yes","NA","ABX_v3.osexp","/home/ubuntu/Desktop/panara","yes","no","mono","no","18","no","white","no","yes","768","16","53","/home/ubuntu/Desktop/panara/subject-109.csv","Jazzy James","3.1.3","1.2.4.wav","1.2.2.wav","2.2.2.wav","0","1","space","1","NA","570","9803","570","NA","2901638","space","2","1024","2","48000","-16","experiment","2.2.2.wav","1.2.4.wav","1.2.2.wav","109","odd","3330344","3332871","3332371","3331599","3197523","NA","3329344","3333588","712","NA","NA","3329341","3334159","3229269","3329341","2902352","NA","3329344","714","New experiment","NA","0","0","0","yes","1024"
"undefined","undefined","undefined","undefined","black","no","legacy","0","uniform","undefined","undefined","undefined","71","71","143","71","71","NA","71","71","0","0","0","71","71","0","71","0","NA","71","0","Tue 02 Jul 2019 12:14:51 PM PDT","500","1000","The main experiment item","yes","NA","ABX_v3.osexp","/home/ubuntu/Desktop/panara","no","no","mono","no","18","no","white","no","yes","768","17","53","/home/ubuntu/Desktop/panara/subject-109.csv","Jazzy James","3.1.3","4.1.2.wav","3.1.2.wav","3.1.4.wav","0","0","space","0","NA","1365","9803","1365","NA","2901638","space","2","1024","2","48000","-16","experiment","4.1.2.wav","3.1.4.wav","3.1.2.wav","109","odd","3335318","3337827","3337327","3336553","3197523","NA","3334318","3338602","712","NA","NA","3334315","3339967","3229269","3334315","2902352","NA","3334318","714","New experiment","NA","0","0","0","yes","1024"
"undefined","undefined","undefined","undefined","black","no","legacy","0","uniform","undefined","undefined","undefined","72","72","145","72","72","NA","72","72","0","0","0","72","72","0","72","0","NA","72","0","Tue 02 Jul 2019 12:14:51 PM PDT","500","1000","The main experiment item","yes","NA","ABX_v3.osexp","/home/ubuntu/Desktop/panara","yes","no","mono","no","18","no","white","no","yes","768","18","53","/home/ubuntu/Desktop/panara/subject-109.csv","Jazzy James","3.1.3","1.2.4.wav","1.2.2.wav","1.1.2.wav","0","0","space","0","NA","1047","9803","1047","NA","2901638","space","2","1024","2","48000","-16","experiment","1.1.2.wav","1.2.4.wav","1.2.2.wav","109","odd","3341133","3343707","3343207","3342426","3197523","NA","3340132","3344511","712","NA","NA","3340129","3345559","3229269","3340129","2902352","NA","3340133","714","New experiment","NA","0","0","0","yes","1024"
"undefined","undefined","undefined","undefined","black","no","legacy","0","uniform","undefined","undefined","undefined","73","73","147","73","73","NA","73","73","0","0","0","73","73","0","73","0","NA","73","0","Tue 02 Jul 2019 12:14:51 PM PDT","500","1000","The main experiment item","yes","NA","ABX_v3.osexp","/home/ubuntu/Desktop/panara","yes","no","mono","no","18","no","white","no","yes","768","19","53","/home/ubuntu/Desktop/panara/subject-109.csv","Jazzy James","3.1.3","3.1.5.wav","1.1.5.wav","1.1.3.wav","0","0","space","0","NA","771","9803","771","NA","2901638","space","2","1024","2","48000","-16","experiment","1.1.3.wav","3.1.5.wav","1.1.5.wav","109","odd","3346742","3349304","3348804","3348025","3197523","NA","3345741","3350115","712","NA","NA","3345738","3350887","3229269","3345738","2902352","NA","3345742","714","New experiment","NA","0","0","0","yes","1024"
"undefined","undefined","undefined","undefined","black","no","legacy","0","uniform","undefined","undefined","undefined","74","74","149","74","74","NA","74","74","0","0","0","74","74","0","74","0","NA","74","0","Tue 02 Jul 2019 12:14:51 PM PDT","500","1000","The main experiment item","yes","NA","ABX_v3.osexp","/home/ubuntu/Desktop/panara","no","no","mono","no","18","no","white","no","yes","768","20","53","/home/ubuntu/Desktop/panara/subject-109.csv","Jazzy James","3.1.3","2.1.1.wav","1.1.1.wav","1.1.3.wav","0","0","space","0","NA","1474","9803","1474","NA","2901638","space","2","1024","2","48000","-16","experiment","2.1.1.wav","1.1.3.wav","1.1.1.wav","109","odd","3352073","3354623","3354123","3353315","3197523","NA","3351072","3355428","712","NA","NA","3351070","3356902","3229269","3351070","2902352","NA","3351073","714","New experiment","NA","0","0","0","yes","1024"
"undefined","undefined","undefined","undefined","black","no","legacy","0","uniform","undefined","undefined","undefined","75","75","151","75","75","NA","75","75","0","0","0","75","75","0","75","0","NA","75","0","Tue 02 Jul 2019 12:14:51 PM PDT","500","1000","The main experiment item","yes","NA","ABX_v3.osexp","/home/ubuntu/Desktop/panara","no","no","mono","no","18","no","white","no","yes","768","21","53","/home/ubuntu/Desktop/panara/subject-109.csv","Jazzy James","3.1.3","1.1.2.wav","1.1.4.wav","1.2.4.wav","0","1","space","1","NA","1167","9803","1167","NA","2901638","space","2","1024","2","48000","-16","experiment","1.1.2.wav","1.2.4.wav","1.1.4.wav","109","odd","3358068","3360653","3360153","3359374","3197523","NA","3357067","3361406","712","NA","NA","3357065","3362574","3229269","3357064","2902352","NA","3357068","714","New experiment","NA","0","0","0","yes","1024"
"undefined","undefined","undefined","undefined","black","no","legacy","0","uniform","undefined","undefined","undefined","76","76","153","76","76","NA","76","76","0","0","0","76","76","0","76","0","NA","76","0","Tue 02 Jul 2019 12:14:51 PM PDT","500","1000","The main experiment item","yes","NA","ABX_v3.osexp","/home/ubuntu/Desktop/panara","yes","no","mono","no","18","no","white","no","yes","768","22","53","/home/ubuntu/Desktop/panara/subject-109.csv","Jazzy James","3.1.3","3.2.5.wav","4.2.5.wav","4.2.3.wav","0","0","space","0","NA","1887","9803","1887","NA","2901638","space","2","1024","2","48000","-16","experiment","4.2.3.wav","3.2.5.wav","4.2.5.wav","109","odd","3363766","3366277","3365777","3365056","3197523","NA","3362765","3367030","712","NA","NA","3362763","3368918","3229269","3362762","2902352","NA","3362766","714","New experiment","NA","0","0","0","yes","1024"
"undefined","undefined","undefined","undefined","black","no","legacy","0","uniform","undefined","undefined","undefined","77","77","155","77","77","NA","77","77","0","0","0","77","77","0","77","0","NA","77","0","Tue 02 Jul 2019 12:14:51 PM PDT","500","1000","The main experiment item","yes","NA","ABX_v3.osexp","/home/ubuntu/Desktop/panara","no","no","mono","no","18","no","white","no","yes","768","23","53","/home/ubuntu/Desktop/panara/subject-109.csv","Jazzy James","3.1.3","3.2.1.wav","4.2.1.wav","4.2.3.wav","0","0","space","0","NA","1559","9803","1559","NA","2901638","space","2","1024","2","48000","-16","experiment","3.2.1.wav","4.2.3.wav","4.2.1.wav","109","odd","3370087","3372569","3372069","3371350","3197523","NA","3369086","3373326","712","NA","NA","3369084","3374885","3229269","3369084","2902352","NA","3369087","714","New experiment","NA","0","0","0","yes","1024"
"undefined","undefined","undefined","undefined","black","no","legacy","0","uniform","undefined","undefined","undefined","78","78","157","78","78","NA","78","78","0","0","0","78","78","0","78","0","NA","78","0","Tue 02 Jul 2019 12:14:51 PM PDT","500","1000","The main experiment item","yes","NA","ABX_v3.osexp","/home/ubuntu/Desktop/panara","no","no","mono","no","18","no","white","no","yes","768","24","53","/home/ubuntu/Desktop/panara/subject-109.csv","Jazzy James","3.1.3","1.1.3.wav","3.1.3.wav","3.1.5.wav","0","0","space","0","NA","881","9803","881","NA","2901638","space","2","1024","2","48000","-16","experiment","1.1.3.wav","3.1.5.wav","3.1.3.wav","109","odd","3376077","3378642","3378142","3377399","3197523","NA","3375076","3379427","712","NA","NA","3375073","3380309","3229269","3375073","2902352","NA","3375077","714","New experiment","NA","0","0","0","yes","1024"
"undefined","undefined","undefined","undefined","black","no","legacy","0","uniform","undefined","undefined","undefined","79","79","159","79","79","NA","79","79","0","0","0","79","79","0","79","0","NA","79","0","Tue 02 Jul 2019 12:14:51 PM PDT","500","1000","The main experiment item","yes","NA","ABX_v3.osexp","/home/ubuntu/Desktop/panara","no","no","mono","no","18","no","white","no","yes","768","25","53","/home/ubuntu/Desktop/panara/subject-109.csv","Jazzy James","3.1.3","3.2.3.wav","3.2.5.wav","1.2.5.wav","0","1","space","1","NA","797","9803","797","NA","2901638","space","2","1024","2","48000","-16","experiment","3.2.3.wav","1.2.5.wav","3.2.5.wav","109","odd","3381499","3384025","3383525","3382753","3197523","NA","3380498","3384815","712","NA","NA","3380496","3385613","3229269","3380496","2902352","NA","3380499","714","New experiment","NA","0","0","0","yes","1024"
"undefined","undefined","undefined","undefined","black","no","legacy","0","uniform","undefined","undefined","undefined","80","80","161","80","80","NA","80","80","0","0","0","80","80","0","80","0","NA","80","0","Tue 02 Jul 2019 12:14:51 PM PDT","500","1000","The main experiment item","yes","NA","ABX_v3.osexp","/home/ubuntu/Desktop/panara","yes","no","mono","no","18","no","white","no","yes","768","26","53","/home/ubuntu/Desktop/panara/subject-109.csv","Jazzy James","3.1.3","4.1.5.wav","2.1.5.wav","2.1.3.wav","0","0","space","0","NA","471","9803","471","NA","2901638","space","2","1024","2","48000","-16","experiment","2.1.3.wav","4.1.5.wav","2.1.5.wav","109","odd","3386782","3389267","3388767","3388014","3197523","NA","3385782","3390013","712","NA","NA","3385780","3390484","3229269","3385780","2902352","NA","3385782","714","New experiment","NA","0","0","0","yes","1024"
"undefined","undefined","undefined","undefined","black","no","legacy","0","uniform","undefined","undefined","undefined","81","81","163","81","81","NA","81","81","0","0","0","81","81","0","81","0","NA","81","0","Tue 02 Jul 2019 12:14:51 PM PDT","500","1000","The main experiment item","yes","NA","ABX_v3.osexp","/home/ubuntu/Desktop/panara","no","no","mono","no","18","no","white","no","yes","768","27","53","/home/ubuntu/Desktop/panara/subject-109.csv","Jazzy James","3.1.3","2.1.2.wav","2.1.4.wav","1.1.4.wav","0","0","space","0","NA","1182","9803","1182","NA","2901638","space","2","1024","2","48000","-16","experiment","2.1.2.wav","1.1.4.wav","2.1.4.wav","109","odd","3391649","3394179","3393679","3392916","3197523","NA","3390649","3394948","712","NA","NA","3390646","3396131","3229269","3390646","2902352","NA","3390649","714","New experiment","NA","0","0","0","yes","1024"
"undefined","undefined","undefined","undefined","black","no","legacy","0","uniform","undefined","undefined","undefined","82","82","165","82","82","NA","82","82","0","0","0","82","82","0","82","0","NA","82","0","Tue 02 Jul 2019 12:14:51 PM PDT","500","1000","The main experiment item","yes","NA","ABX_v3.osexp","/home/ubuntu/Desktop/panara","yes","no","mono","no","18","no","white","no","yes","768","28","53","/home/ubuntu/Desktop/panara/subject-109.csv","Jazzy James","3.1.3","4.2.4.wav","4.2.2.wav","4.1.2.wav","0","0","space","0","NA","2668","9803","2668","NA","2901638","space","2","1024","2","48000","-16","experiment","4.1.2.wav","4.2.4.wav","4.2.2.wav","109","odd","3397324","3399790","3399290","3398567","3197523","NA","3396323","3400518","712","NA","NA","3396320","3403187","3229269","3396320","2902352","NA","3396323","714","New experiment","NA","0","0","0","yes","1024"
"undefined","undefined","undefined","undefined","black","no","legacy","0","uniform","undefined","undefined","undefined","83","83","167","83","83","NA","83","83","0","0","0","83","83","0","83","0","NA","83","0","Tue 02 Jul 2019 12:14:51 PM PDT","500","1000","The main experiment item","yes","NA","ABX_v3.osexp","/home/ubuntu/Desktop/panara","no","no","mono","no","18","no","white","no","yes","768","29","53","/home/ubuntu/Desktop/panara/subject-109.csv","Jazzy James","3.1.3","2.1.1.wav","2.1.3.wav","1.1.3.wav","0","0","space","0","NA","915","9803","915","NA","2901638","space","2","1024","2","48000","-16","experiment","2.1.1.wav","1.1.3.wav","2.1.3.wav","109","odd","3404351","3406893","3406393","3405633","3197523","NA","3403351","3407704","712","NA","NA","3403348","3408619","3229269","3403348","2902352","NA","3403351","714","New experiment","NA","0","0","0","yes","1024"
"undefined","undefined","undefined","undefined","black","no","legacy","0","uniform","undefined","undefined","undefined","84","84","169","84","84","NA","84","84","0","0","0","84","84","0","84","0","NA","84","0","Tue 02 Jul 2019 12:14:51 PM PDT","500","1000","The main experiment item","yes","NA","ABX_v3.osexp","/home/ubuntu/Desktop/panara","no","no","mono","no","18","no","white","no","yes","768","30","53","/home/ubuntu/Desktop/panara/subject-109.csv","Jazzy James","3.1.3","2.2.3.wav","2.2.5.wav","2.1.5.wav","0","0","space","0","NA","2835","9803","2835","NA","2901638","space","2","1024","2","48000","-16","experiment","2.2.3.wav","2.1.5.wav","2.2.5.wav","109","odd","3409785","3412269","3411769","3411047","3197523","NA","3408785","3413023","712","NA","NA","3408782","3415859","3229269","3408782","2902352","NA","3408785","714","New experiment","NA","0","0","0","yes","1024"
"undefined","undefined","undefined","undefined","black","no","legacy","0","uniform","undefined","undefined","undefined","85","85","171","85","85","NA","85","85","0","0","0","85","85","0","85","0","NA","85","0","Tue 02 Jul 2019 12:14:51 PM PDT","500","1000","The main experiment item","yes","NA","ABX_v3.osexp","/home/ubuntu/Desktop/panara","yes","no","mono","no","18","no","white","no","yes","768","31","53","/home/ubuntu/Desktop/panara/subject-109.csv","Jazzy James","3.1.3","4.1.5.wav","4.1.3.wav","4.2.3.wav","0","1","space","1","NA","979","9803","979","NA","2901638","space","2","1024","2","48000","-16","experiment","4.2.3.wav","4.1.5.wav","4.1.3.wav","109","odd","3417046","3419521","3419021","3418301","3197523","NA","3416045","3420270","712","NA","NA","3416042","3421250","3229269","3416042","2902352","NA","3416046","714","New experiment","NA","0","0","0","yes","1024"
"undefined","undefined","undefined","undefined","black","no","legacy","0","uniform","undefined","undefined","undefined","86","86","173","86","86","NA","86","86","0","0","0","86","86","0","86","0","NA","86","0","Tue 02 Jul 2019 12:14:51 PM PDT","500","1000","The main experiment item","yes","NA","ABX_v3.osexp","/home/ubuntu/Desktop/panara","yes","no","mono","no","18","no","white","no","yes","768","32","53","/home/ubuntu/Desktop/panara/subject-109.csv","Jazzy James","3.1.3","1.1.3.wav","3.1.3.wav","3.1.1.wav","0","0","space","0","NA","1653","9803","1653","NA","2901638","space","2","1024","2","48000","-16","experiment","3.1.1.wav","1.1.3.wav","3.1.3.wav","109","odd","3422431","3424962","3424462","3423717","3197523","NA","3421431","3425717","712","NA","NA","3421428","3427370","3229269","3421428","2902352","NA","3421431","714","New experiment","NA","0","0","0","yes","1024"
"undefined","undefined","undefined","undefined","black","no","legacy","0","uniform","undefined","undefined","undefined","87","87","175","87","87","NA","87","87","0","0","0","87","87","0","87","0","NA","87","0","Tue 02 Jul 2019 12:14:51 PM PDT","500","1000","The main experiment item","yes","NA","ABX_v3.osexp","/home/ubuntu/Desktop/panara","yes","no","mono","no","18","no","white","no","yes","768","33","53","/home/ubuntu/Desktop/panara/subject-109.csv","Jazzy James","3.1.3","3.2.5.wav","3.2.3.wav","3.1.3.wav","0","1","space","1","NA","2932","9803","2932","NA","2901638","space","2","1024","2","48000","-16","experiment","3.1.3.wav","3.2.5.wav","3.2.3.wav","109","odd","3428559","3431101","3430601","3429854","3197523","NA","3427559","3431845","712","NA","NA","3427556","3434778","3229269","3427556","2902352","NA","3427559","714","New experiment","NA","0","0","0","yes","1024"
"undefined","undefined","undefined","undefined","black","no","legacy","0","uniform","undefined","undefined","undefined","88","88","177","88","88","NA","88","88","0","0","0","88","88","0","88","0","NA","88","0","Tue 02 Jul 2019 12:14:51 PM PDT","500","1000","The main experiment item","yes","NA","ABX_v3.osexp","/home/ubuntu/Desktop/panara","no","no","mono","no","18","no","white","no","yes","768","34","53","/home/ubuntu/Desktop/panara/subject-109.csv","Jazzy James","3.1.3","2.2.2.wav","2.2.4.wav","2.1.4.wav","0","0","space","0","NA","713","9803","713","NA","2901638","space","2","1024","2","48000","-16","experiment","2.2.2.wav","2.1.4.wav","2.2.4.wav","109","odd","3435971","3438422","3437922","3437201","3197523","NA","3434971","3439176","712","NA","NA","3434968","3439890","3229269","3434968","2902352","NA","3434971","714","New experiment","NA","0","0","0","yes","1024"
"undefined","undefined","undefined","undefined","black","no","legacy","0","uniform","undefined","undefined","undefined","89","89","179","89","89","NA","89","89","0","0","0","89","89","0","89","0","NA","89","0","Tue 02 Jul 2019 12:14:51 PM PDT","500","1000","The main experiment item","yes","NA","ABX_v3.osexp","/home/ubuntu/Desktop/panara","yes","no","mono","no","18","no","white","no","yes","768","35","53","/home/ubuntu/Desktop/panara/subject-109.csv","Jazzy James","3.1.3","3.1.3.wav","4.1.3.wav","4.1.1.wav","0","1","space","1","NA","2747","9803","2747","NA","2901638","space","2","1024","2","48000","-16","experiment","4.1.1.wav","3.1.3.wav","4.1.3.wav","109","odd","3441059","3443535","3443035","3442313","3197523","NA","3440058","3444260","712","NA","NA","3440056","3447008","3229269","3440056","2902352","NA","3440059","714","New experiment","NA","0","0","0","yes","1024"
"undefined","undefined","undefined","undefined","black","no","legacy","0","uniform","undefined","undefined","undefined","90","90","181","90","90","NA","90","90","0","0","0","90","90","0","90","0","NA","90","0","Tue 02 Jul 2019 12:14:51 PM PDT","500","1000","The main experiment item","yes","NA","ABX_v3.osexp","/home/ubuntu/Desktop/panara","no","no","mono","no","18","no","white","no","yes","768","36","53","/home/ubuntu/Desktop/panara/subject-109.csv","Jazzy James","3.1.3","3.2.3.wav","3.2.5.wav","4.2.5.wav","0","1","space","1","NA","767","9803","767","NA","2901638","space","2","1024","2","48000","-16","experiment","3.2.3.wav","4.2.5.wav","3.2.5.wav","109","odd","3448193","3450724","3450224","3449445","3197523","NA","3447193","3451464","712","NA","NA","3447190","3452232","3229269","3447190","2902352","NA","3447193","714","New experiment","NA","0","0","0","yes","1024"
"undefined","undefined","undefined","undefined","black","no","legacy","0","uniform","undefined","undefined","undefined","91","91","183","91","91","NA","91","91","0","0","0","91","91","0","91","0","NA","91","0","Tue 02 Jul 2019 12:14:51 PM PDT","500","1000","The main experiment item","yes","NA","ABX_v3.osexp","/home/ubuntu/Desktop/panara","yes","no","mono","no","18","no","white","no","yes","768","37","53","/home/ubuntu/Desktop/panara/subject-109.csv","Jazzy James","3.1.3","2.1.3.wav","2.1.1.wav","1.1.1.wav","0","1","space","1","NA","643","9803","643","NA","2901638","space","2","1024","2","48000","-16","experiment","1.1.1.wav","2.1.3.wav","2.1.1.wav","109","odd","3453389","3455887","3455387","3454649","3197523","NA","3452388","3456669","712","NA","NA","3452386","3457313","3229269","3452386","2902352","NA","3452388","714","New experiment","NA","0","0","0","yes","1024"
"undefined","undefined","undefined","undefined","black","no","legacy","0","uniform","undefined","undefined","undefined","92","92","185","92","92","NA","92","92","0","0","0","92","92","0","92","0","NA","92","0","Tue 02 Jul 2019 12:14:51 PM PDT","500","1000","The main experiment item","yes","NA","ABX_v3.osexp","/home/ubuntu/Desktop/panara","no","no","mono","no","18","no","white","no","yes","768","38","53","/home/ubuntu/Desktop/panara/subject-109.csv","Jazzy James","3.1.3","4.1.1.wav","4.2.1.wav","4.2.3.wav","0","0","space","0","NA","589","9803","589","NA","2901638","space","2","1024","2","48000","-16","experiment","4.1.1.wav","4.2.3.wav","4.2.1.wav","109","odd","3458519","3460978","3460478","3459754","3197523","NA","3457519","3461731","712","NA","NA","3457516","3462320","3229269","3457516","2902352","NA","3457519","714","New experiment","NA","0","0","0","yes","1024"
"undefined","undefined","undefined","undefined","black","no","legacy","0","uniform","undefined","undefined","undefined","93","93","187","93","93","NA","93","93","0","0","0","93","93","0","93","0","NA","93","0","Tue 02 Jul 2019 12:14:51 PM PDT","500","1000","The main experiment item","yes","NA","ABX_v3.osexp","/home/ubuntu/Desktop/panara","no","no","mono","no","18","no","white","no","yes","768","39","53","/home/ubuntu/Desktop/panara/subject-109.csv","Jazzy James","3.1.3","2.1.1.wav","4.1.1.wav","4.1.3.wav","0","0","space","0","NA","1958","9803","1958","NA","2901638","space","2","1024","2","48000","-16","experiment","2.1.1.wav","4.1.3.wav","4.1.1.wav","109","odd","3463479","3465978","3465478","3464724","3197523","NA","3462479","3466697","712","NA","NA","3462477","3468656","3229269","3462477","2902352","NA","3462479","714","New experiment","NA","0","0","0","yes","1024"
"undefined","undefined","undefined","undefined","black","no","legacy","0","uniform","undefined","undefined","undefined","94","94","189","94","94","NA","94","94","0","0","0","94","94","0","94","0","NA","94","0","Tue 02 Jul 2019 12:14:51 PM PDT","500","1000","The main experiment item","yes","NA","ABX_v3.osexp","/home/ubuntu/Desktop/panara","yes","no","mono","no","18","no","white","no","yes","768","40","53","/home/ubuntu/Desktop/panara/subject-109.csv","Jazzy James","3.1.3","3.1.4.wav","4.1.4.wav","4.1.2.wav","0","0","space","0","NA","2149","9803","2149","NA","2901638","space","2","1024","2","48000","-16","experiment","4.1.2.wav","3.1.4.wav","4.1.4.wav","109","odd","3469814","3472313","3471813","3471101","3197523","NA","3468814","3473049","712","NA","NA","3468811","3475199","3229269","3468811","2902352","NA","3468814","714","New experiment","NA","0","0","0","yes","1024"
"undefined","undefined","undefined","undefined","black","no","legacy","0","uniform","undefined","undefined","undefined","95","95","191","95","95","NA","95","95","0","0","0","95","95","0","95","0","NA","95","0","Tue 02 Jul 2019 12:14:51 PM PDT","500","1000","The main experiment item","yes","NA","ABX_v3.osexp","/home/ubuntu/Desktop/panara","yes","no","mono","no","18","no","white","no","yes","768","41","53","/home/ubuntu/Desktop/panara/subject-109.csv","Jazzy James","3.1.3","3.1.3.wav","3.2.3.wav","3.2.1.wav","0","1","space","1","NA","2304","9803","2304","NA","2901638","space","2","1024","2","48000","-16","experiment","3.2.1.wav","3.1.3.wav","3.2.3.wav","109","odd","3476374","3478861","3478361","3477598","3197523","NA","3475374","3479606","712","NA","NA","3475371","3481911","3229269","3475371","2902352","NA","3475374","714","New experiment","NA","0","0","0","yes","1024"
"undefined","undefined","undefined","undefined","black","no","legacy","0","uniform","undefined","undefined","undefined","96","96","193","96","96","NA","96","96","0","0","0","96","96","0","96","0","NA","96","0","Tue 02 Jul 2019 12:14:51 PM PDT","500","1000","The main experiment item","yes","NA","ABX_v3.osexp","/home/ubuntu/Desktop/panara","no","no","mono","no","18","no","white","no","yes","768","42","53","/home/ubuntu/Desktop/panara/subject-109.csv","Jazzy James","3.1.3","4.1.3.wav","4.1.5.wav","4.2.5.wav","0","0","space","0","NA","7552","9803","7552","NA","2901638","space","2","1024","2","48000","-16","experiment","4.1.3.wav","4.2.5.wav","4.1.5.wav","109","odd","3483069","3485518","3485018","3484297","3197523","NA","3482068","3486278","712","NA","NA","3482066","3493830","3229269","3482066","2902352","NA","3482069","714","New experiment","NA","0","0","0","yes","1024"
"undefined","undefined","undefined","undefined","black","no","legacy","0","uniform","undefined","undefined","undefined","97","97","195","97","97","NA","97","97","0","0","0","97","97","0","97","0","NA","97","0","Tue 02 Jul 2019 12:14:51 PM PDT","500","1000","The main experiment item","yes","NA","ABX_v3.osexp","/home/ubuntu/Desktop/panara","no","no","mono","no","18","no","white","no","yes","768","43","53","/home/ubuntu/Desktop/panara/subject-109.csv","Jazzy James","3.1.3","1.2.3.wav","1.2.5.wav","1.1.5.wav","0","0","space","0","NA","1008","9803","1008","NA","2901638","space","2","1024","2","48000","-16","experiment","1.2.3.wav","1.1.5.wav","1.2.5.wav","109","odd","3495021","3497574","3497074","3496311","3197523","NA","3494021","3498333","712","NA","NA","3494018","3499342","3229269","3494018","2902352","NA","3494021","714","New experiment","NA","0","0","0","yes","1024"
"undefined","undefined","undefined","undefined","black","no","legacy","0","uniform","undefined","undefined","undefined","98","98","197","98","98","NA","98","98","0","0","0","98","98","0","98","0","NA","98","0","Tue 02 Jul 2019 12:14:51 PM PDT","500","1000","The main experiment item","yes","NA","ABX_v3.osexp","/home/ubuntu/Desktop/panara","yes","no","mono","no","18","no","white","no","yes","768","44","53","/home/ubuntu/Desktop/panara/subject-109.csv","Jazzy James","3.1.3","3.1.4.wav","1.1.4.wav","1.1.2.wav","0","0","space","0","NA","1024","9803","1024","NA","2901638","space","2","1024","2","48000","-16","experiment","1.1.2.wav","3.1.4.wav","1.1.4.wav","109","odd","3500520","3503100","3502600","3501810","3197523","NA","3499519","3503877","712","NA","NA","3499517","3504902","3229269","3499517","2902352","NA","3499520","714","New experiment","NA","0","0","0","yes","1024"
"undefined","undefined","undefined","undefined","black","no","legacy","0","uniform","undefined","undefined","undefined","99","99","199","99","99","NA","99","99","0","0","0","99","99","0","99","0","NA","99","0","Tue 02 Jul 2019 12:14:51 PM PDT","500","1000","The main experiment item","yes","NA","ABX_v3.osexp","/home/ubuntu/Desktop/panara","yes","no","mono","no","18","no","white","no","yes","768","45","53","/home/ubuntu/Desktop/panara/subject-109.csv","Jazzy James","3.1.3","4.1.4.wav","4.1.2.wav","4.2.2.wav","0","0","space","0","NA","1283","9803","1283","NA","2901638","space","2","1024","2","48000","-16","experiment","4.2.2.wav","4.1.4.wav","4.1.2.wav","109","odd","3506051","3508529","3508029","3507314","3197523","NA","3505050","3509258","712","NA","NA","3505048","3510542","3229269","3505048","2902352","NA","3505051","714","New experiment","NA","0","0","0","yes","1024"
"undefined","undefined","undefined","undefined","black","no","legacy","0","uniform","undefined","undefined","undefined","100","100","201","100","100","NA","100","100","0","0","0","100","100","0","100","0","NA","100","0","Tue 02 Jul 2019 12:14:51 PM PDT","500","1000","The main experiment item","yes","NA","ABX_v3.osexp","/home/ubuntu/Desktop/panara","no","no","mono","no","18","no","white","no","yes","768","46","53","/home/ubuntu/Desktop/panara/subject-109.csv","Jazzy James","3.1.3","2.2.1.wav","2.1.1.wav","2.1.3.wav","0","0","space","0","NA","878","16619","878","NA","2901638","space","2","1024","2","48000","-16","experiment","2.2.1.wav","2.1.3.wav","2.1.1.wav","109","odd","3528335","3530805","3530305","3529553","3510713","NA","3527335","3531550","712","NA","NA","3510711","3532428","3229269","3510711","2902352","NA","3527335","714","New experiment","NA","0","0","0","yes","1024"
"undefined","undefined","undefined","undefined","black","no","legacy","0","uniform","undefined","undefined","undefined","101","101","203","101","101","NA","101","101","0","0","0","101","101","0","101","0","NA","101","0","Tue 02 Jul 2019 12:14:51 PM PDT","500","1000","The main experiment item","yes","NA","ABX_v3.osexp","/home/ubuntu/Desktop/panara","yes","no","mono","no","18","no","white","no","yes","768","47","53","/home/ubuntu/Desktop/panara/subject-109.csv","Jazzy James","3.1.3","2.2.4.wav","2.1.4.wav","2.1.2.wav","0","0","space","0","NA","341","16619","341","NA","2901638","space","2","1024","2","48000","-16","experiment","2.1.2.wav","2.2.4.wav","2.1.4.wav","109","odd","3533571","3536031","3535531","3534794","3510713","NA","3532571","3536797","712","NA","NA","3532568","3537139","3229269","3532568","2902352","NA","3532571","714","New experiment","NA","0","0","0","yes","1024"
"undefined","undefined","undefined","undefined","black","no","legacy","0","uniform","undefined","undefined","undefined","102","102","205","102","102","NA","102","102","0","0","0","102","102","0","102","0","NA","102","0","Tue 02 Jul 2019 12:14:51 PM PDT","500","1000","The main experiment item","yes","NA","ABX_v3.osexp","/home/ubuntu/Desktop/panara","yes","no","mono","no","18","no","white","no","yes","768","48","53","/home/ubuntu/Desktop/panara/subject-109.csv","Jazzy James","3.1.3","1.2.4.wav","2.2.4.wav","2.2.2.wav","0","1","space","1","NA","1952","16619","1952","NA","2901638","space","2","1024","2","48000","-16","experiment","2.2.2.wav","1.2.4.wav","2.2.4.wav","109","odd","3538297","3540767","3540267","3539554","3510713","NA","3537297","3541507","712","NA","NA","3537294","3543460","3229269","3537294","2902352","NA","3537297","714","New experiment","NA","0","0","0","yes","1024"
"undefined","undefined","undefined","undefined","black","no","legacy","0","uniform","undefined","undefined","undefined","103","103","207","103","103","NA","103","103","0","0","0","103","103","0","103","0","NA","103","0","Tue 02 Jul 2019 12:14:51 PM PDT","500","1000","The main experiment item","yes","NA","ABX_v3.osexp","/home/ubuntu/Desktop/panara","no","no","mono","no","18","no","white","no","yes","768","49","53","/home/ubuntu/Desktop/panara/subject-109.csv","Jazzy James","3.1.3","4.2.3.wav","3.2.3.wav","3.2.5.wav","0","0","space","0","NA","606","16619","606","NA","2901638","space","2","1024","2","48000","-16","experiment","4.2.3.wav","3.2.5.wav","3.2.3.wav","109","odd","3544639","3547145","3546645","3545895","3510713","NA","3543638","3547933","712","NA","NA","3543636","3548539","3229269","3543636","2902352","NA","3543639","714","New experiment","NA","0","0","0","yes","1024"
"undefined","undefined","undefined","undefined","black","no","legacy","0","uniform","undefined","undefined","undefined","104","104","209","104","104","NA","104","104","0","0","0","104","104","0","104","0","NA","104","0","Tue 02 Jul 2019 12:14:51 PM PDT","500","1000","The main experiment item","yes","NA","ABX_v3.osexp","/home/ubuntu/Desktop/panara","yes","no","mono","no","18","no","white","no","yes","768","50","53","/home/ubuntu/Desktop/panara/subject-109.csv","Jazzy James","3.1.3","1.1.5.wav","2.1.5.wav","2.1.3.wav","0","0","space","0","NA","541","16619","541","NA","2901638","space","2","1024","2","48000","-16","experiment","2.1.3.wav","1.1.5.wav","2.1.5.wav","109","odd","3549713","3552209","3551709","3550967","3510713","NA","3548712","3552989","712","NA","NA","3548709","3553531","3229269","3548709","2902352","NA","3548713","714","New experiment","NA","0","0","0","yes","1024"
"undefined","undefined","undefined","undefined","black","no","legacy","0","uniform","undefined","undefined","undefined","105","105","211","105","105","NA","105","105","0","0","0","105","105","0","105","0","NA","105","0","Tue 02 Jul 2019 12:14:51 PM PDT","500","1000","The main experiment item","yes","NA","ABX_v3.osexp","/home/ubuntu/Desktop/panara","no","no","mono","no","18","no","white","no","yes","768","51","53","/home/ubuntu/Desktop/panara/subject-109.csv","Jazzy James","3.1.3","3.1.1.wav","3.1.3.wav","3.2.3.wav","0","0","space","0","NA","1842","16619","1842","NA","2901638","space","2","1024","2","48000","-16","experiment","3.1.1.wav","3.2.3.wav","3.1.3.wav","109","odd","3554742","3557235","3556735","3556003","3510713","NA","3553741","3558000","712","NA","NA","3553738","3559843","3229269","3553738","2902352","NA","3553742","714","New experiment","NA","0","0","0","yes","1024"
"undefined","undefined","undefined","undefined","black","no","legacy","0","uniform","undefined","undefined","undefined","106","106","213","106","106","NA","106","106","0","0","0","106","106","0","106","0","NA","106","0","Tue 02 Jul 2019 12:14:51 PM PDT","500","1000","The main experiment item","yes","NA","ABX_v3.osexp","/home/ubuntu/Desktop/panara","yes","no","mono","no","18","no","white","no","yes","768","52","53","/home/ubuntu/Desktop/panara/subject-109.csv","Jazzy James","3.1.3","2.1.3.wav","2.2.3.wav","2.2.1.wav","0","0","space","0","NA","389","16619","389","NA","2901638","space","2","1024","2","48000","-16","experiment","2.2.1.wav","2.1.3.wav","2.2.3.wav","109","odd","3561043","3563550","3563049","3562299","3510713","NA","3560042","3564269","712","NA","NA","3560040","3564658","3229269","3560039","2902352","NA","3560043","714","New experiment","NA","0","0","0","yes","1024"
"undefined","undefined","undefined","undefined","black","no","legacy","0","uniform","undefined","undefined","undefined","107","107","215","107","107","NA","107","107","0","0","0","107","107","0","107","0","NA","107","0","Tue 02 Jul 2019 12:14:51 PM PDT","500","1000","The main experiment item","yes","NA","ABX_v3.osexp","/home/ubuntu/Desktop/panara","no","no","mono","no","18","no","white","no","yes","768","53","53","/home/ubuntu/Desktop/panara/subject-109.csv","Jazzy James","3.1.3","1.2.1.wav","3.2.1.wav","3.2.3.wav","0","0","space","0","NA","626","16619","626","NA","2901638","space","2","1024","2","48000","-16","experiment","1.2.1.wav","3.2.3.wav","3.2.1.wav","109","odd","3565857","3568370","3567870","3567134","3510713","NA","3564857","3569135","712","NA","NA","3564854","3569762","3229269","3564854","2902352","NA","3564857","714","New experiment","NA","0","0","0","yes","1024"
"undefined","undefined","undefined","undefined","black","no","legacy","0","uniform","undefined","undefined","undefined","108","108","217","108","108","NA","108","108","0","0","0","108","108","0","108","0","NA","108","0","Tue 02 Jul 2019 12:14:51 PM PDT","500","1000","The main experiment item","yes","NA","ABX_v3.osexp","/home/ubuntu/Desktop/panara","no","no","mono","no","18","no","white","no","yes","768","54","53","/home/ubuntu/Desktop/panara/subject-109.csv","Jazzy James","3.1.3","3.1.2.wav","3.1.4.wav","3.2.4.wav","0","0","space","0","NA","1696","16619","1696","NA","2901638","space","2","1024","2","48000","-16","experiment","3.1.2.wav","3.2.4.wav","3.1.4.wav","109","odd","3570972","3573532","3573032","3572258","3510713","NA","3569972","3574281","712","NA","NA","3569969","3575978","3229269","3569969","2902352","NA","3569972","714","New experiment","NA","0","0","0","yes","1024"
"undefined","undefined","undefined","undefined","black","no","legacy","0","uniform","undefined","undefined","undefined","109","109","219","109","109","NA","109","109","0","0","0","109","109","0","109","0","NA","109","0","Tue 02 Jul 2019 12:14:51 PM PDT","500","1000","The main experiment item","yes","NA","ABX_v3.osexp","/home/ubuntu/Desktop/panara","yes","no","mono","no","18","no","white","no","yes","768","55","53","/home/ubuntu/Desktop/panara/subject-109.csv","Jazzy James","3.1.3","1.1.4.wav","3.1.4.wav","3.1.2.wav","0","0","space","0","NA","487","16619","487","NA","2901638","space","2","1024","2","48000","-16","experiment","3.1.2.wav","1.1.4.wav","3.1.4.wav","109","odd","3577172","3579762","3579262","3578466","3510713","NA","3576172","3580545","712","NA","NA","3576170","3581033","3229269","3576169","2902352","NA","3576172","714","New experiment","NA","0","0","0","yes","1024"
"undefined","undefined","undefined","undefined","black","no","legacy","0","uniform","undefined","undefined","undefined","110","110","221","110","110","NA","110","110","0","0","0","110","110","0","110","0","NA","110","0","Tue 02 Jul 2019 12:14:51 PM PDT","500","1000","The main experiment item","yes","NA","ABX_v3.osexp","/home/ubuntu/Desktop/panara","yes","no","mono","no","18","no","white","no","yes","768","56","53","/home/ubuntu/Desktop/panara/subject-109.csv","Jazzy James","3.1.3","1.2.5.wav","1.2.3.wav","3.2.3.wav","0","1","space","1","NA","740","16619","740","NA","2901638","space","2","1024","2","48000","-16","experiment","3.2.3.wav","1.2.5.wav","1.2.3.wav","109","odd","3582249","3584823","3584323","3583537","3510713","NA","3581248","3585557","712","NA","NA","3581246","3586297","3229269","3581246","2902352","NA","3581248","714","New experiment","NA","0","0","0","yes","1024"
"undefined","undefined","undefined","undefined","black","no","legacy","0","uniform","undefined","undefined","undefined","111","111","223","111","111","NA","111","111","0","0","0","111","111","0","111","0","NA","111","0","Tue 02 Jul 2019 12:14:51 PM PDT","500","1000","The main experiment item","yes","NA","ABX_v3.osexp","/home/ubuntu/Desktop/panara","yes","no","mono","no","18","no","white","no","yes","768","57","53","/home/ubuntu/Desktop/panara/subject-109.csv","Jazzy James","3.1.3","1.2.4.wav","3.2.4.wav","3.2.2.wav","0","0","space","0","NA","522","16619","522","NA","2901638","space","2","1024","2","48000","-16","experiment","3.2.2.wav","1.2.4.wav","3.2.4.wav","109","odd","3587479","3589980","3589480","3588725","3510713","NA","3586479","3590750","712","NA","NA","3586476","3591273","3229269","3586476","2902352","NA","3586479","714","New experiment","NA","0","0","0","yes","1024"
