"acc","accuracy","average_response_time","avg_rt","background","bidi","canvas_backend","compensation","coordinates","correct","correct_display_selecting","correct_welcome","count_A","count_B","count_ISI","count_X","count_break","count_determine_break","count_display_listening","count_display_selecting","count_experiment","count_finished","count_getting_started","count_new_inline_script","count_new_logger","count_new_loop","count_new_sequence","count_plain_block","count_setup_breaks","count_wait_nextitem","count_welcome","datetime","delay_ISI","delay_wait_nextitem","description","disable_garbage_collection","empty_column","experiment_file","experiment_path","flip_order","font_bold","font_family","font_italic","font_size","font_underline","foreground","form_clicks","fullscreen","height","live_row","live_row_plain_block","logfile","opensesame_codename","opensesame_version","play1","play2","play3","repeat_cycle","response","response_break","response_display_selecting","response_finished","response_time","response_time_break","response_time_display_selecting","response_time_finished","response_time_welcome","response_welcome","round_decimals","sound_buf_size","sound_channels","sound_freq","sound_sample_size","start","stimA","stimB","stimX","subject_nr","subject_parity","time_A","time_B","time_ISI","time_X","time_break","time_determine_break","time_display_listening","time_display_selecting","time_experiment","time_finished","time_getting_started","time_new_inline_script","time_new_logger","time_new_loop","time_new_sequence","time_plain_block","time_setup_breaks","time_wait_nextitem","time_welcome","title","to_break","total_correct","total_response_time","total_responses","uniform_coordinates","width"
"undefined","undefined","undefined","undefined","black","no","legacy","0","uniform","undefined","undefined","undefined","0","0","1","0","0","NA","0","0","0","0","0","0","0","0","0","0","NA","0","0","Fri 26 Jul 2019 12:52:33 PM PDT","500","1000","The main experiment item","yes","NA","ABX_v3.osexp","/home/ubuntu/Desktop/panara","yes","no","mono","no","18","no","white","no","yes","768","0","0","/home/ubuntu/Desktop/panara/subject-117.csv","Jazzy James","3.1.3","2.2.5.wav","2.2.3.wav","2.2.3.wav","0","1","NA","1","NA","10915","NA","10915","NA","124058","space","2","1024","2","48000","-16","experiment","2.2.3.wav","2.2.5.wav","2.2.3.wav","117","odd","125633","128087","127587","126878","NA","NA","124633","128822","526","NA","NA","124631","139738","NA","124631","124586","NA","124633","528","New experiment","NA","0","0","0","yes","1024"
"undefined","undefined","undefined","undefined","black","no","legacy","0","uniform","undefined","undefined","undefined","1","1","3","1","1","NA","1","1","0","0","0","1","1","0","1","0","NA","1","0","Fri 26 Jul 2019 12:52:33 PM PDT","500","1000","The main experiment item","yes","NA","ABX_v3.osexp","/home/ubuntu/Desktop/panara","yes","no","mono","no","18","no","white","no","yes","768","1","1","/home/ubuntu/Desktop/panara/subject-117.csv","Jazzy James","3.1.3","4.1.3.wav","4.1.1.wav","4.1.1.wav","0","1","NA","1","NA","16378","NA","16378","NA","124058","space","2","1024","2","48000","-16","experiment","4.1.1.wav","4.1.3.wav","4.1.1.wav","117","odd","140983","143424","142924","142209","NA","NA","139983","144143","526","NA","NA","139981","160521","NA","139981","124586","NA","139983","528","New experiment","NA","0","0","0","yes","1024"
"undefined","undefined","undefined","undefined","black","no","legacy","0","uniform","undefined","undefined","undefined","2","2","5","2","2","NA","2","2","0","0","0","2","2","0","2","0","NA","2","0","Fri 26 Jul 2019 12:52:33 PM PDT","500","1000","The main experiment item","yes","NA","ABX_v3.osexp","/home/ubuntu/Desktop/panara","no","no","mono","no","18","no","white","no","yes","768","2","2","/home/ubuntu/Desktop/panara/subject-117.csv","Jazzy James","3.1.3","3.2.1.wav","3.2.3.wav","3.2.3.wav","0","1","NA","1","NA","13682","NA","13682","NA","124058","space","2","1024","2","48000","-16","experiment","3.2.1.wav","3.2.3.wav","3.2.3.wav","117","odd","161693","164203","163703","162944","NA","NA","160693","164950","526","NA","NA","160691","178633","NA","160691","124586","NA","160693","528","New experiment","NA","0","0","0","yes","1024"
"undefined","undefined","undefined","undefined","black","no","legacy","0","uniform","undefined","undefined","undefined","3","3","7","3","3","NA","3","3","0","0","0","3","3","0","3","0","NA","3","0","Fri 26 Jul 2019 12:52:33 PM PDT","500","1000","The main experiment item","yes","NA","ABX_v3.osexp","/home/ubuntu/Desktop/panara","yes","no","mono","no","18","no","white","no","yes","768","3","3","/home/ubuntu/Desktop/panara/subject-117.csv","Jazzy James","3.1.3","4.1.5.wav","4.1.3.wav","4.1.3.wav","0","0","NA","0","NA","1026","NA","1026","NA","124058","space","2","1024","2","48000","-16","experiment","4.1.3.wav","4.1.5.wav","4.1.3.wav","117","odd","179819","182272","181772","181055","NA","NA","178819","182989","526","NA","NA","178817","184015","NA","178817","124586","NA","178819","528","New experiment","NA","0","0","0","yes","1024"
"undefined","undefined","undefined","undefined","black","no","legacy","0","uniform","undefined","undefined","undefined","4","4","9","4","4","NA","4","4","0","0","0","4","4","0","4","0","NA","4","0","Fri 26 Jul 2019 12:52:33 PM PDT","500","1000","The main experiment item","yes","NA","ABX_v3.osexp","/home/ubuntu/Desktop/panara","no","no","mono","no","18","no","white","no","yes","768","4","4","/home/ubuntu/Desktop/panara/subject-117.csv","Jazzy James","3.1.3","3.2.2.wav","3.2.4.wav","3.2.4.wav","0","0","NA","0","NA","16573","NA","16573","NA","124058","space","2","1024","2","48000","-16","experiment","3.2.2.wav","3.2.4.wav","3.2.4.wav","117","odd","185171","187711","187211","186460","NA","NA","184171","188458","526","NA","NA","184168","205031","NA","184168","124586","NA","184171","528","New experiment","NA","0","0","0","yes","1024"
"undefined","undefined","undefined","undefined","black","no","legacy","0","uniform","undefined","undefined","undefined","5","5","11","5","5","NA","5","5","0","0","0","5","5","0","5","0","NA","5","0","Fri 26 Jul 2019 12:52:33 PM PDT","500","1000","The main experiment item","yes","NA","ABX_v3.osexp","/home/ubuntu/Desktop/panara","no","no","mono","no","18","no","white","no","yes","768","5","5","/home/ubuntu/Desktop/panara/subject-117.csv","Jazzy James","3.1.3","1.1.3.wav","1.1.3.wav","1.1.5.wav","0","0","NA","0","NA","10745","NA","10745","NA","124058","space","2","1024","2","48000","-16","experiment","1.1.3.wav","1.1.5.wav","1.1.3.wav","117","odd","206187","208767","208267","207488","NA","NA","205187","209549","526","NA","NA","205184","220295","NA","205184","124586","NA","205187","528","New experiment","NA","0","0","0","yes","1024"
"undefined","undefined","undefined","undefined","black","no","legacy","0","uniform","undefined","undefined","undefined","6","6","13","6","6","NA","6","6","0","0","0","6","6","0","6","0","NA","6","0","Fri 26 Jul 2019 12:52:33 PM PDT","500","1000","The main experiment item","yes","NA","ABX_v3.osexp","/home/ubuntu/Desktop/panara","no","no","mono","no","18","no","white","no","yes","768","6","6","/home/ubuntu/Desktop/panara/subject-117.csv","Jazzy James","3.1.3","1.2.3.wav","1.2.3.wav","1.2.5.wav","0","0","NA","0","NA","1220","NA","1220","NA","124058","space","2","1024","2","48000","-16","experiment","1.2.3.wav","1.2.5.wav","1.2.3.wav","117","odd","221436","224018","223518","222739","NA","NA","220435","224801","526","NA","NA","220433","226021","NA","220433","124586","NA","220436","528","New experiment","NA","0","0","0","yes","1024"
"undefined","undefined","undefined","undefined","black","no","legacy","0","uniform","undefined","undefined","undefined","7","7","15","7","7","NA","7","7","0","0","0","7","7","0","7","0","NA","7","0","Fri 26 Jul 2019 12:52:33 PM PDT","500","1000","The main experiment item","yes","NA","ABX_v3.osexp","/home/ubuntu/Desktop/panara","no","no","mono","no","18","no","white","no","yes","768","7","7","/home/ubuntu/Desktop/panara/subject-117.csv","Jazzy James","3.1.3","1.2.2.wav","1.2.4.wav","1.2.4.wav","0","0","NA","0","NA","5562","NA","5562","NA","124058","space","2","1024","2","48000","-16","experiment","1.2.2.wav","1.2.4.wav","1.2.4.wav","117","odd","227189","229715","229215","228463","NA","NA","226188","230482","526","NA","NA","226186","236045","NA","226186","124586","NA","226189","528","New experiment","NA","0","0","0","yes","1024"
"undefined","undefined","undefined","undefined","black","no","legacy","0","uniform","undefined","undefined","undefined","8","8","17","8","8","NA","8","8","0","0","0","8","8","0","8","0","NA","8","0","Fri 26 Jul 2019 12:52:33 PM PDT","500","1000","The main experiment item","yes","NA","ABX_v3.osexp","/home/ubuntu/Desktop/panara","yes","no","mono","no","18","no","white","no","yes","768","8","8","/home/ubuntu/Desktop/panara/subject-117.csv","Jazzy James","3.1.3","4.1.3.wav","4.1.3.wav","4.1.1.wav","0","0","NA","0","NA","6586","NA","6586","NA","124058","space","2","1024","2","48000","-16","experiment","4.1.1.wav","4.1.3.wav","4.1.3.wav","117","odd","237210","239654","239154","238439","NA","NA","236210","240394","526","NA","NA","236208","246980","NA","236207","124586","NA","236210","528","New experiment","NA","0","0","0","yes","1024"
"undefined","undefined","undefined","undefined","black","no","legacy","0","uniform","undefined","undefined","undefined","9","9","19","9","9","NA","9","9","0","0","0","9","9","0","9","0","NA","9","0","Fri 26 Jul 2019 12:52:33 PM PDT","500","1000","The main experiment item","yes","NA","ABX_v3.osexp","/home/ubuntu/Desktop/panara","no","no","mono","no","18","no","white","no","yes","768","9","9","/home/ubuntu/Desktop/panara/subject-117.csv","Jazzy James","3.1.3","4.2.1.wav","4.2.1.wav","4.2.3.wav","0","0","NA","0","NA","837","NA","837","NA","124058","space","2","1024","2","48000","-16","experiment","4.2.1.wav","4.2.3.wav","4.2.1.wav","117","odd","248163","250618","250118","249403","NA","NA","247163","251366","526","NA","NA","247160","252203","NA","247160","124586","NA","247163","528","New experiment","NA","0","0","0","yes","1024"
"undefined","undefined","undefined","undefined","black","no","legacy","0","uniform","undefined","undefined","undefined","10","10","21","10","10","NA","10","10","0","0","0","10","10","0","10","0","NA","10","0","Fri 26 Jul 2019 12:52:33 PM PDT","500","1000","The main experiment item","yes","NA","ABX_v3.osexp","/home/ubuntu/Desktop/panara","no","no","mono","no","18","no","white","no","yes","768","10","10","/home/ubuntu/Desktop/panara/subject-117.csv","Jazzy James","3.1.3","2.2.3.wav","2.2.5.wav","2.2.5.wav","0","0","NA","0","NA","810","NA","810","NA","124058","space","2","1024","2","48000","-16","experiment","2.2.3.wav","2.2.5.wav","2.2.5.wav","117","odd","253377","255803","255302","254587","NA","NA","252377","256521","526","NA","NA","252375","257331","NA","252375","124586","NA","252377","528","New experiment","NA","0","0","0","yes","1024"
"undefined","undefined","undefined","undefined","black","no","legacy","0","uniform","undefined","undefined","undefined","11","11","23","11","11","NA","11","11","0","0","0","11","11","0","11","0","NA","11","0","Fri 26 Jul 2019 12:52:33 PM PDT","500","1000","The main experiment item","yes","NA","ABX_v3.osexp","/home/ubuntu/Desktop/panara","no","no","mono","no","18","no","white","no","yes","768","11","11","/home/ubuntu/Desktop/panara/subject-117.csv","Jazzy James","3.1.3","2.1.2.wav","2.1.4.wav","2.1.4.wav","0","0","NA","0","NA","1644","NA","1644","NA","124058","space","2","1024","2","48000","-16","experiment","2.1.2.wav","2.1.4.wav","2.1.4.wav","117","odd","258485","261015","260515","259770","NA","NA","257485","261790","526","NA","NA","257483","263434","NA","257482","124586","NA","257485","528","New experiment","NA","0","0","0","yes","1024"
"undefined","undefined","undefined","undefined","black","no","legacy","0","uniform","undefined","undefined","undefined","12","12","25","12","12","NA","12","12","0","0","0","12","12","0","12","0","NA","12","0","Fri 26 Jul 2019 12:52:33 PM PDT","500","1000","The main experiment item","yes","NA","ABX_v3.osexp","/home/ubuntu/Desktop/panara","yes","no","mono","no","18","no","white","no","yes","768","12","12","/home/ubuntu/Desktop/panara/subject-117.csv","Jazzy James","3.1.3","2.2.4.wav","2.2.4.wav","2.2.2.wav","0","1","NA","1","NA","1985","NA","1985","NA","124058","space","2","1024","2","48000","-16","experiment","2.2.2.wav","2.2.4.wav","2.2.4.wav","117","odd","264601","267065","266565","265810","NA","NA","263601","267784","526","NA","NA","263598","269770","NA","263598","124586","NA","263601","528","New experiment","NA","0","0","0","yes","1024"
"undefined","undefined","undefined","undefined","black","no","legacy","0","uniform","undefined","undefined","undefined","13","13","27","13","13","NA","13","13","0","0","0","13","13","0","13","0","NA","13","0","Fri 26 Jul 2019 12:52:33 PM PDT","500","1000","The main experiment item","yes","NA","ABX_v3.osexp","/home/ubuntu/Desktop/panara","yes","no","mono","no","18","no","white","no","yes","768","13","13","/home/ubuntu/Desktop/panara/subject-117.csv","Jazzy James","3.1.3","3.1.3.wav","3.1.3.wav","3.1.1.wav","0","1","NA","1","NA","1139","NA","1139","NA","124058","space","2","1024","2","48000","-16","experiment","3.1.1.wav","3.1.3.wav","3.1.3.wav","117","odd","270960","273444","272944","272192","NA","NA","269960","274190","526","NA","NA","269957","275329","NA","269957","124586","NA","269960","528","New experiment","NA","0","0","0","yes","1024"
"undefined","undefined","undefined","undefined","black","no","legacy","0","uniform","undefined","undefined","undefined","14","14","29","14","14","NA","14","14","0","0","0","14","14","0","14","0","NA","14","0","Fri 26 Jul 2019 12:52:33 PM PDT","500","1000","The main experiment item","yes","NA","ABX_v3.osexp","/home/ubuntu/Desktop/panara","no","no","mono","no","18","no","white","no","yes","768","14","14","/home/ubuntu/Desktop/panara/subject-117.csv","Jazzy James","3.1.3","3.2.3.wav","3.2.5.wav","3.2.5.wav","0","0","NA","0","NA","2280","NA","2280","NA","124058","space","2","1024","2","48000","-16","experiment","3.2.3.wav","3.2.5.wav","3.2.5.wav","117","odd","276519","279074","278574","277792","NA","NA","275519","279856","526","NA","NA","275517","282137","NA","275517","124586","NA","275519","528","New experiment","NA","0","0","0","yes","1024"
"undefined","undefined","undefined","undefined","black","no","legacy","0","uniform","undefined","undefined","undefined","15","15","31","15","15","NA","15","15","0","0","0","15","15","0","15","0","NA","15","0","Fri 26 Jul 2019 12:52:33 PM PDT","500","1000","The main experiment item","yes","NA","ABX_v3.osexp","/home/ubuntu/Desktop/panara","yes","no","mono","no","18","no","white","no","yes","768","15","15","/home/ubuntu/Desktop/panara/subject-117.csv","Jazzy James","3.1.3","5.2.3.wav","5.2.3.wav","5.2.1.wav","0","1","NA","1","NA","2149","NA","2149","NA","124058","space","2","1024","2","48000","-16","experiment","5.2.1.wav","5.2.3.wav","5.2.3.wav","117","odd","283303","285805","285305","284584","NA","NA","282302","286531","526","NA","NA","282300","288680","NA","282300","124586","NA","282303","528","New experiment","NA","0","0","0","yes","1024"
"undefined","undefined","undefined","undefined","black","no","legacy","0","uniform","undefined","undefined","undefined","16","16","33","16","16","NA","16","16","0","0","0","16","16","0","16","0","NA","16","0","Fri 26 Jul 2019 12:52:33 PM PDT","500","1000","The main experiment item","yes","NA","ABX_v3.osexp","/home/ubuntu/Desktop/panara","no","no","mono","no","18","no","white","no","yes","768","16","16","/home/ubuntu/Desktop/panara/subject-117.csv","Jazzy James","3.1.3","3.1.3.wav","3.1.3.wav","3.1.5.wav","0","0","NA","0","NA","901","NA","901","NA","124058","space","2","1024","2","48000","-16","experiment","3.1.3.wav","3.1.5.wav","3.1.3.wav","117","odd","289864","292354","291854","291104","NA","NA","288864","293137","526","NA","NA","288861","294039","NA","288861","124586","NA","288864","528","New experiment","NA","0","0","0","yes","1024"
"undefined","undefined","undefined","undefined","black","no","legacy","0","uniform","undefined","undefined","undefined","17","17","35","17","17","NA","17","17","0","0","0","17","17","0","17","0","NA","17","0","Fri 26 Jul 2019 12:52:33 PM PDT","500","1000","The main experiment item","yes","NA","ABX_v3.osexp","/home/ubuntu/Desktop/panara","yes","no","mono","no","18","no","white","no","yes","768","17","17","/home/ubuntu/Desktop/panara/subject-117.csv","Jazzy James","3.1.3","2.1.4.wav","2.1.2.wav","2.1.2.wav","0","0","NA","0","NA","778","NA","778","NA","124058","space","2","1024","2","48000","-16","experiment","2.1.2.wav","2.1.4.wav","2.1.2.wav","117","odd","295221","297723","297223","296471","NA","NA","294220","298477","526","NA","NA","294218","299255","NA","294218","124586","NA","294221","528","New experiment","NA","0","0","0","yes","1024"
"undefined","undefined","undefined","undefined","black","no","legacy","0","uniform","undefined","undefined","undefined","18","18","37","18","18","NA","18","18","0","0","0","18","18","0","18","0","NA","18","0","Fri 26 Jul 2019 12:52:33 PM PDT","500","1000","The main experiment item","yes","NA","ABX_v3.osexp","/home/ubuntu/Desktop/panara","no","no","mono","no","18","no","white","no","yes","768","18","18","/home/ubuntu/Desktop/panara/subject-117.csv","Jazzy James","3.1.3","4.2.1.wav","4.2.3.wav","4.2.3.wav","0","0","NA","0","NA","1492","NA","1492","NA","124058","space","2","1024","2","48000","-16","experiment","4.2.1.wav","4.2.3.wav","4.2.3.wav","117","odd","300438","302921","302421","301670","NA","NA","299437","303674","526","NA","NA","299435","305167","NA","299435","124586","NA","299438","528","New experiment","NA","0","0","0","yes","1024"
"undefined","undefined","undefined","undefined","black","no","legacy","0","uniform","undefined","undefined","undefined","19","19","39","19","19","NA","19","19","0","0","0","19","19","0","19","0","NA","19","0","Fri 26 Jul 2019 12:52:33 PM PDT","500","1000","The main experiment item","yes","NA","ABX_v3.osexp","/home/ubuntu/Desktop/panara","no","no","mono","no","18","no","white","no","yes","768","19","19","/home/ubuntu/Desktop/panara/subject-117.csv","Jazzy James","3.1.3","1.2.1.wav","1.2.1.wav","1.2.3.wav","0","0","NA","0","NA","3682","NA","3682","NA","124058","space","2","1024","2","48000","-16","experiment","1.2.1.wav","1.2.3.wav","1.2.1.wav","117","odd","306327","308894","308394","307615","NA","NA","305326","309675","526","NA","NA","305324","313358","NA","305324","124586","NA","305327","528","New experiment","NA","0","0","0","yes","1024"
"undefined","undefined","undefined","undefined","black","no","legacy","0","uniform","undefined","undefined","undefined","20","20","41","20","20","NA","20","20","0","0","0","20","20","0","20","0","NA","20","0","Fri 26 Jul 2019 12:52:33 PM PDT","500","1000","The main experiment item","yes","NA","ABX_v3.osexp","/home/ubuntu/Desktop/panara","yes","no","mono","no","18","no","white","no","yes","768","20","20","/home/ubuntu/Desktop/panara/subject-117.csv","Jazzy James","3.1.3","3.1.5.wav","3.1.5.wav","3.1.3.wav","0","1","NA","1","NA","1333","NA","1333","NA","124058","space","2","1024","2","48000","-16","experiment","3.1.3.wav","3.1.5.wav","3.1.5.wav","117","odd","314527","317071","316571","315797","NA","NA","313526","317824","526","NA","NA","313524","319157","NA","313524","124586","NA","313526","528","New experiment","NA","0","0","0","yes","1024"
"undefined","undefined","undefined","undefined","black","no","legacy","0","uniform","undefined","undefined","undefined","21","21","43","21","21","NA","21","21","0","0","0","21","21","0","21","0","NA","21","0","Fri 26 Jul 2019 12:52:33 PM PDT","500","1000","The main experiment item","yes","NA","ABX_v3.osexp","/home/ubuntu/Desktop/panara","yes","no","mono","no","18","no","white","no","yes","768","21","21","/home/ubuntu/Desktop/panara/subject-117.csv","Jazzy James","3.1.3","5.2.4.wav","5.2.2.wav","5.2.2.wav","0","0","NA","0","NA","4506","NA","4506","NA","124058","space","2","1024","2","48000","-16","experiment","5.2.2.wav","5.2.4.wav","5.2.2.wav","117","odd","320328","322801","322301","321586","NA","NA","319327","323529","526","NA","NA","319324","328036","NA","319324","124586","NA","319328","528","New experiment","NA","0","0","0","yes","1024"
"undefined","undefined","undefined","undefined","black","no","legacy","0","uniform","undefined","undefined","undefined","22","22","45","22","22","NA","22","22","0","0","0","22","22","0","22","0","NA","22","0","Fri 26 Jul 2019 12:52:33 PM PDT","500","1000","The main experiment item","yes","NA","ABX_v3.osexp","/home/ubuntu/Desktop/panara","yes","no","mono","no","18","no","white","no","yes","768","22","22","/home/ubuntu/Desktop/panara/subject-117.csv","Jazzy James","3.1.3","3.1.3.wav","3.1.1.wav","3.1.1.wav","0","0","NA","0","NA","1465","NA","1465","NA","124058","space","2","1024","2","48000","-16","experiment","3.1.1.wav","3.1.3.wav","3.1.1.wav","117","odd","329206","331710","331210","330460","NA","NA","328205","332467","526","NA","NA","328203","333932","NA","328203","124586","NA","328206","528","New experiment","NA","0","0","0","yes","1024"
"undefined","undefined","undefined","undefined","black","no","legacy","0","uniform","undefined","undefined","undefined","23","23","47","23","23","NA","23","23","0","0","0","23","23","0","23","0","NA","23","0","Fri 26 Jul 2019 12:52:33 PM PDT","500","1000","The main experiment item","yes","NA","ABX_v3.osexp","/home/ubuntu/Desktop/panara","no","no","mono","no","18","no","white","no","yes","768","23","23","/home/ubuntu/Desktop/panara/subject-117.csv","Jazzy James","3.1.3","2.2.2.wav","2.2.2.wav","2.2.4.wav","0","1","NA","1","NA","2836","NA","2836","NA","124058","space","2","1024","2","48000","-16","experiment","2.2.2.wav","2.2.4.wav","2.2.2.wav","117","odd","335111","337592","337092","336377","NA","NA","334111","338311","526","NA","NA","334108","341148","NA","334108","124586","NA","334111","528","New experiment","NA","0","0","0","yes","1024"
"undefined","undefined","undefined","undefined","black","no","legacy","0","uniform","undefined","undefined","undefined","24","24","49","24","24","NA","24","24","0","0","0","24","24","0","24","0","NA","24","0","Fri 26 Jul 2019 12:52:33 PM PDT","500","1000","The main experiment item","yes","NA","ABX_v3.osexp","/home/ubuntu/Desktop/panara","no","no","mono","no","18","no","white","no","yes","768","24","24","/home/ubuntu/Desktop/panara/subject-117.csv","Jazzy James","3.1.3","1.1.2.wav","1.1.4.wav","1.1.4.wav","0","0","NA","0","NA","6754","NA","6754","NA","124058","space","2","1024","2","48000","-16","experiment","1.1.2.wav","1.1.4.wav","1.1.4.wav","117","odd","342317","344867","344367","343586","NA","NA","341317","345640","526","NA","NA","341314","352395","NA","341314","124586","NA","341317","528","New experiment","NA","0","0","0","yes","1024"
"undefined","undefined","undefined","undefined","black","no","legacy","0","uniform","undefined","undefined","undefined","25","25","51","25","25","NA","25","25","0","0","0","25","25","0","25","0","NA","25","0","Fri 26 Jul 2019 12:52:33 PM PDT","500","1000","The main experiment item","yes","NA","ABX_v3.osexp","/home/ubuntu/Desktop/panara","yes","no","mono","no","18","no","white","no","yes","768","25","25","/home/ubuntu/Desktop/panara/subject-117.csv","Jazzy James","3.1.3","1.1.5.wav","1.1.5.wav","1.1.3.wav","0","1","NA","1","NA","7312","NA","7312","NA","124058","space","2","1024","2","48000","-16","experiment","1.1.3.wav","1.1.5.wav","1.1.5.wav","117","odd","353566","356135","355635","354863","NA","NA","352566","356945","526","NA","NA","352564","364258","NA","352564","124586","NA","352566","528","New experiment","NA","0","0","0","yes","1024"
"undefined","undefined","undefined","undefined","black","no","legacy","0","uniform","undefined","undefined","undefined","26","26","53","26","26","NA","26","26","0","0","0","26","26","0","26","0","NA","26","0","Fri 26 Jul 2019 12:52:33 PM PDT","500","1000","The main experiment item","yes","NA","ABX_v3.osexp","/home/ubuntu/Desktop/panara","yes","no","mono","no","18","no","white","no","yes","768","26","26","/home/ubuntu/Desktop/panara/subject-117.csv","Jazzy James","3.1.3","1.1.3.wav","1.1.1.wav","1.1.1.wav","0","1","NA","1","NA","2219","NA","2219","NA","124058","space","2","1024","2","48000","-16","experiment","1.1.1.wav","1.1.3.wav","1.1.1.wav","117","odd","365418","367969","367469","366688","NA","NA","364418","368750","526","NA","NA","364415","370969","NA","364415","124586","NA","364418","528","New experiment","NA","0","0","0","yes","1024"
"undefined","undefined","undefined","undefined","black","no","legacy","0","uniform","undefined","undefined","undefined","27","27","55","27","27","NA","27","27","0","0","0","27","27","0","27","0","NA","27","0","Fri 26 Jul 2019 12:52:33 PM PDT","500","1000","The main experiment item","yes","NA","ABX_v3.osexp","/home/ubuntu/Desktop/panara","no","no","mono","no","18","no","white","no","yes","768","27","27","/home/ubuntu/Desktop/panara/subject-117.csv","Jazzy James","3.1.3","5.2.2.wav","5.2.4.wav","5.2.4.wav","0","0","NA","0","NA","1108","NA","1108","NA","124058","space","2","1024","2","48000","-16","experiment","5.2.2.wav","5.2.4.wav","5.2.4.wav","117","odd","372158","374595","374095","373345","NA","NA","371158","375348","526","NA","NA","371155","376457","NA","371155","124586","NA","371158","528","New experiment","NA","0","0","0","yes","1024"
"undefined","undefined","undefined","undefined","black","no","legacy","0","uniform","undefined","undefined","undefined","28","28","57","28","28","NA","28","28","0","0","0","28","28","0","28","0","NA","28","0","Fri 26 Jul 2019 12:52:33 PM PDT","500","1000","The main experiment item","yes","NA","ABX_v3.osexp","/home/ubuntu/Desktop/panara","yes","no","mono","no","18","no","white","no","yes","768","28","28","/home/ubuntu/Desktop/panara/subject-117.csv","Jazzy James","3.1.3","3.2.4.wav","3.2.2.wav","3.2.2.wav","0","0","NA","0","NA","7047","NA","7047","NA","124058","space","2","1024","2","48000","-16","experiment","3.2.2.wav","3.2.4.wav","3.2.2.wav","117","odd","377635","380162","379662","378891","NA","NA","376634","380944","526","NA","NA","376632","387992","NA","376632","124586","NA","376635","528","New experiment","NA","0","0","0","yes","1024"
"undefined","undefined","undefined","undefined","black","no","legacy","0","uniform","undefined","undefined","undefined","29","29","59","29","29","NA","29","29","0","0","0","29","29","0","29","0","NA","29","0","Fri 26 Jul 2019 12:52:33 PM PDT","500","1000","The main experiment item","yes","NA","ABX_v3.osexp","/home/ubuntu/Desktop/panara","no","no","mono","no","18","no","white","no","yes","768","29","29","/home/ubuntu/Desktop/panara/subject-117.csv","Jazzy James","3.1.3","4.1.2.wav","4.1.4.wav","4.1.4.wav","0","1","NA","1","NA","1426","NA","1426","NA","124058","space","2","1024","2","48000","-16","experiment","4.1.2.wav","4.1.4.wav","4.1.4.wav","117","odd","389112","391562","391062","390345","NA","NA","388112","392285","526","NA","NA","388109","393711","NA","388109","124586","NA","388112","528","New experiment","NA","0","0","0","yes","1024"
"undefined","undefined","undefined","undefined","black","no","legacy","0","uniform","undefined","undefined","undefined","30","30","61","30","30","NA","30","30","0","0","0","30","30","0","30","0","NA","30","0","Fri 26 Jul 2019 12:52:33 PM PDT","500","1000","The main experiment item","yes","NA","ABX_v3.osexp","/home/ubuntu/Desktop/panara","no","no","mono","no","18","no","white","no","yes","768","30","30","/home/ubuntu/Desktop/panara/subject-117.csv","Jazzy James","3.1.3","1.2.1.wav","1.2.3.wav","1.2.3.wav","0","1","NA","1","NA","2253","NA","2253","NA","124058","space","2","1024","2","48000","-16","experiment","1.2.1.wav","1.2.3.wav","1.2.3.wav","117","odd","394835","397384","396884","396106","NA","NA","393834","398169","526","NA","NA","393832","400423","NA","393832","124586","NA","393835","528","New experiment","NA","0","0","0","yes","1024"
"undefined","undefined","undefined","undefined","black","no","legacy","0","uniform","undefined","undefined","undefined","31","31","63","31","31","NA","31","31","0","0","0","31","31","0","31","0","NA","31","0","Fri 26 Jul 2019 12:52:33 PM PDT","500","1000","The main experiment item","yes","NA","ABX_v3.osexp","/home/ubuntu/Desktop/panara","yes","no","mono","no","18","no","white","no","yes","768","31","31","/home/ubuntu/Desktop/panara/subject-117.csv","Jazzy James","3.1.3","5.2.3.wav","5.2.1.wav","5.2.1.wav","0","0","NA","0","NA","1762","NA","1762","NA","124058","space","2","1024","2","48000","-16","experiment","5.2.1.wav","5.2.3.wav","5.2.1.wav","117","odd","401574","403998","403498","402803","NA","NA","400574","404716","526","NA","NA","400572","406478","NA","400572","124586","NA","400574","528","New experiment","NA","0","0","0","yes","1024"
"undefined","undefined","undefined","undefined","black","no","legacy","0","uniform","undefined","undefined","undefined","32","32","65","32","32","NA","32","32","0","0","0","32","32","0","32","0","NA","32","0","Fri 26 Jul 2019 12:52:33 PM PDT","500","1000","The main experiment item","yes","NA","ABX_v3.osexp","/home/ubuntu/Desktop/panara","yes","no","mono","no","18","no","white","no","yes","768","32","32","/home/ubuntu/Desktop/panara/subject-117.csv","Jazzy James","3.1.3","1.2.5.wav","1.2.5.wav","1.2.3.wav","0","1","NA","1","NA","3574","NA","3574","NA","124058","space","2","1024","2","48000","-16","experiment","1.2.3.wav","1.2.5.wav","1.2.5.wav","117","odd","407663","410219","409719","408937","NA","NA","406663","411007","526","NA","NA","406660","414582","NA","406660","124586","NA","406663","528","New experiment","NA","0","0","0","yes","1024"
"undefined","undefined","undefined","undefined","black","no","legacy","0","uniform","undefined","undefined","undefined","33","33","67","33","33","NA","33","33","0","0","0","33","33","0","33","0","NA","33","0","Fri 26 Jul 2019 12:52:33 PM PDT","500","1000","The main experiment item","yes","NA","ABX_v3.osexp","/home/ubuntu/Desktop/panara","yes","no","mono","no","18","no","white","no","yes","768","33","33","/home/ubuntu/Desktop/panara/subject-117.csv","Jazzy James","3.1.3","1.1.4.wav","1.1.2.wav","1.1.2.wav","0","0","NA","0","NA","1586","NA","1586","NA","124058","space","2","1024","2","48000","-16","experiment","1.1.2.wav","1.1.4.wav","1.1.2.wav","117","odd","415730","418333","417833","417016","NA","NA","414729","419115","526","NA","NA","414727","420701","NA","414727","124586","NA","414730","528","New experiment","NA","0","0","0","yes","1024"
"undefined","undefined","undefined","undefined","black","no","legacy","0","uniform","undefined","undefined","undefined","34","34","69","34","34","NA","34","34","0","0","0","34","34","0","34","0","NA","34","0","Fri 26 Jul 2019 12:52:33 PM PDT","500","1000","The main experiment item","yes","NA","ABX_v3.osexp","/home/ubuntu/Desktop/panara","yes","no","mono","no","18","no","white","no","yes","768","34","34","/home/ubuntu/Desktop/panara/subject-117.csv","Jazzy James","3.1.3","2.2.3.wav","2.2.1.wav","2.2.1.wav","0","0","NA","0","NA","2021","NA","2021","NA","124058","space","2","1024","2","48000","-16","experiment","2.2.1.wav","2.2.3.wav","2.2.1.wav","117","odd","421848","424332","423832","423112","NA","NA","420848","425087","526","NA","NA","420846","427109","NA","420846","124586","NA","420848","528","New experiment","NA","0","0","0","yes","1024"
"undefined","undefined","undefined","undefined","black","no","legacy","0","uniform","undefined","undefined","undefined","35","35","71","35","35","NA","35","35","0","0","0","35","35","0","35","0","NA","35","0","Fri 26 Jul 2019 12:52:33 PM PDT","500","1000","The main experiment item","yes","NA","ABX_v3.osexp","/home/ubuntu/Desktop/panara","no","no","mono","no","18","no","white","no","yes","768","35","35","/home/ubuntu/Desktop/panara/subject-117.csv","Jazzy James","3.1.3","4.1.2.wav","4.1.2.wav","4.1.4.wav","0","1","NA","1","NA","1264","NA","1264","NA","124058","space","2","1024","2","48000","-16","experiment","4.1.2.wav","4.1.4.wav","4.1.2.wav","117","odd","428289","430753","430253","429530","NA","NA","427288","431508","526","NA","NA","427286","432772","NA","427286","124586","NA","427289","528","New experiment","NA","0","0","0","yes","1024"
"undefined","undefined","undefined","undefined","black","no","legacy","0","uniform","undefined","undefined","undefined","36","36","73","36","36","NA","36","36","0","0","0","36","36","0","36","0","NA","36","0","Fri 26 Jul 2019 12:52:33 PM PDT","500","1000","The main experiment item","yes","NA","ABX_v3.osexp","/home/ubuntu/Desktop/panara","yes","no","mono","no","18","no","white","no","yes","768","36","36","/home/ubuntu/Desktop/panara/subject-117.csv","Jazzy James","3.1.3","4.2.4.wav","4.2.2.wav","4.2.2.wav","0","1","NA","1","NA","1263","NA","1263","NA","124058","space","2","1024","2","48000","-16","experiment","4.2.2.wav","4.2.4.wav","4.2.2.wav","117","odd","433901","436385","435885","435163","NA","NA","432900","437140","526","NA","NA","432898","438404","NA","432898","124586","NA","432900","528","New experiment","NA","0","0","0","yes","1024"
"undefined","undefined","undefined","undefined","black","no","legacy","0","uniform","undefined","undefined","undefined","37","37","75","37","37","NA","37","37","0","0","0","37","37","0","37","0","NA","37","0","Fri 26 Jul 2019 12:52:33 PM PDT","500","1000","The main experiment item","yes","NA","ABX_v3.osexp","/home/ubuntu/Desktop/panara","no","no","mono","no","18","no","white","no","yes","768","37","37","/home/ubuntu/Desktop/panara/subject-117.csv","Jazzy James","3.1.3","5.2.3.wav","5.2.3.wav","5.2.5.wav","0","1","NA","1","NA","1660","NA","1660","NA","124058","space","2","1024","2","48000","-16","experiment","5.2.3.wav","5.2.5.wav","5.2.3.wav","117","odd","439569","442017","441517","440796","NA","NA","438569","442751","526","NA","NA","438567","444411","NA","438567","124586","NA","438569","528","New experiment","NA","0","0","0","yes","1024"
"undefined","undefined","undefined","undefined","black","no","legacy","0","uniform","undefined","undefined","undefined","38","38","77","38","38","NA","38","38","0","0","0","38","38","0","38","0","NA","38","0","Fri 26 Jul 2019 12:52:33 PM PDT","500","1000","The main experiment item","yes","NA","ABX_v3.osexp","/home/ubuntu/Desktop/panara","no","no","mono","no","18","no","white","no","yes","768","38","38","/home/ubuntu/Desktop/panara/subject-117.csv","Jazzy James","3.1.3","1.1.1.wav","1.1.3.wav","1.1.3.wav","0","0","NA","0","NA","749","NA","749","NA","124058","space","2","1024","2","48000","-16","experiment","1.1.1.wav","1.1.3.wav","1.1.3.wav","117","odd","445589","448176","447676","446866","NA","NA","444588","448958","526","NA","NA","444586","449707","NA","444586","124586","NA","444589","528","New experiment","NA","0","0","0","yes","1024"
"undefined","undefined","undefined","undefined","black","no","legacy","0","uniform","undefined","undefined","undefined","39","39","79","39","39","NA","39","39","0","0","0","39","39","0","39","0","NA","39","0","Fri 26 Jul 2019 12:52:33 PM PDT","500","1000","The main experiment item","yes","NA","ABX_v3.osexp","/home/ubuntu/Desktop/panara","yes","no","mono","no","18","no","white","no","yes","768","39","39","/home/ubuntu/Desktop/panara/subject-117.csv","Jazzy James","3.1.3","4.1.5.wav","4.1.5.wav","4.1.3.wav","0","1","NA","1","NA","3290","NA","3290","NA","124058","space","2","1024","2","48000","-16","experiment","4.1.3.wav","4.1.5.wav","4.1.5.wav","117","odd","450893","453381","452881","452128","NA","NA","449893","454104","526","NA","NA","449890","457394","NA","449890","124586","NA","449893","528","New experiment","NA","0","0","0","yes","1024"
"undefined","undefined","undefined","undefined","black","no","legacy","0","uniform","undefined","undefined","undefined","40","40","81","40","40","NA","40","40","0","0","0","40","40","0","40","0","NA","40","0","Fri 26 Jul 2019 12:52:33 PM PDT","500","1000","The main experiment item","yes","NA","ABX_v3.osexp","/home/ubuntu/Desktop/panara","no","no","mono","no","18","no","white","no","yes","768","40","40","/home/ubuntu/Desktop/panara/subject-117.csv","Jazzy James","3.1.3","3.1.2.wav","3.1.2.wav","3.1.4.wav","0","0","NA","0","NA","1207","NA","1207","NA","124058","space","2","1024","2","48000","-16","experiment","3.1.2.wav","3.1.4.wav","3.1.2.wav","117","odd","458578","461126","460626","459866","NA","NA","457577","461898","526","NA","NA","457575","463106","NA","457575","124586","NA","457577","528","New experiment","NA","0","0","0","yes","1024"
"undefined","undefined","undefined","undefined","black","no","legacy","0","uniform","undefined","undefined","undefined","41","41","83","41","41","NA","41","41","0","0","0","41","41","0","41","0","NA","41","0","Fri 26 Jul 2019 12:52:33 PM PDT","500","1000","The main experiment item","yes","NA","ABX_v3.osexp","/home/ubuntu/Desktop/panara","yes","no","mono","no","18","no","white","no","yes","768","41","41","/home/ubuntu/Desktop/panara/subject-117.csv","Jazzy James","3.1.3","2.1.5.wav","2.1.3.wav","2.1.3.wav","0","0","NA","0","NA","2172","NA","2172","NA","124058","space","2","1024","2","48000","-16","experiment","2.1.3.wav","2.1.5.wav","2.1.3.wav","117","odd","464255","466747","466247","465497","NA","NA","463255","467501","526","NA","NA","463252","469674","NA","463252","124586","NA","463255","528","New experiment","NA","0","0","0","yes","1024"
"undefined","undefined","undefined","undefined","black","no","legacy","0","uniform","undefined","undefined","undefined","42","42","85","42","42","NA","42","42","0","0","0","42","42","0","42","0","NA","42","0","Fri 26 Jul 2019 12:52:33 PM PDT","500","1000","The main experiment item","yes","NA","ABX_v3.osexp","/home/ubuntu/Desktop/panara","yes","no","mono","no","18","no","white","no","yes","768","42","42","/home/ubuntu/Desktop/panara/subject-117.csv","Jazzy James","3.1.3","3.2.3.wav","3.2.1.wav","3.2.1.wav","0","1","NA","1","NA","1869","NA","1869","NA","124058","space","2","1024","2","48000","-16","experiment","3.2.1.wav","3.2.3.wav","3.2.1.wav","117","odd","470823","473601","473101","472066","NA","NA","469823","474340","526","NA","NA","469820","476209","NA","469820","124586","NA","469823","528","New experiment","NA","0","0","0","yes","1024"
"undefined","undefined","undefined","undefined","black","no","legacy","0","uniform","undefined","undefined","undefined","43","43","87","43","43","NA","43","43","0","0","0","43","43","0","43","0","NA","43","0","Fri 26 Jul 2019 12:52:33 PM PDT","500","1000","The main experiment item","yes","NA","ABX_v3.osexp","/home/ubuntu/Desktop/panara","no","no","mono","no","18","no","white","no","yes","768","43","43","/home/ubuntu/Desktop/panara/subject-117.csv","Jazzy James","3.1.3","4.2.3.wav","4.2.3.wav","4.2.5.wav","0","1","NA","1","NA","1683","NA","1683","NA","124058","space","2","1024","2","48000","-16","experiment","4.2.3.wav","4.2.5.wav","4.2.3.wav","117","odd","477370","479900","479400","478635","NA","NA","476370","480613","526","NA","NA","476367","482297","NA","476367","124586","NA","476370","528","New experiment","NA","0","0","0","yes","1024"
"undefined","undefined","undefined","undefined","black","no","legacy","0","uniform","undefined","undefined","undefined","44","44","89","44","44","NA","44","44","0","0","0","44","44","0","44","0","NA","44","0","Fri 26 Jul 2019 12:52:33 PM PDT","500","1000","The main experiment item","yes","NA","ABX_v3.osexp","/home/ubuntu/Desktop/panara","yes","no","mono","no","18","no","white","no","yes","768","44","44","/home/ubuntu/Desktop/panara/subject-117.csv","Jazzy James","3.1.3","2.1.5.wav","2.1.5.wav","2.1.3.wav","0","1","NA","1","NA","1163","NA","1163","NA","124058","space","2","1024","2","48000","-16","experiment","2.1.3.wav","2.1.5.wav","2.1.5.wav","117","odd","483447","485940","485440","484690","NA","NA","482446","486693","526","NA","NA","482443","487856","NA","482443","124586","NA","482447","528","New experiment","NA","0","0","0","yes","1024"
"undefined","undefined","undefined","undefined","black","no","legacy","0","uniform","undefined","undefined","undefined","45","45","91","45","45","NA","45","45","0","0","0","45","45","0","45","0","NA","45","0","Fri 26 Jul 2019 12:52:33 PM PDT","500","1000","The main experiment item","yes","NA","ABX_v3.osexp","/home/ubuntu/Desktop/panara","yes","no","mono","no","18","no","white","no","yes","768","45","45","/home/ubuntu/Desktop/panara/subject-117.csv","Jazzy James","3.1.3","2.2.3.wav","2.2.3.wav","2.2.1.wav","0","1","NA","1","NA","3694","NA","3694","NA","124058","space","2","1024","2","48000","-16","experiment","2.2.1.wav","2.2.3.wav","2.2.3.wav","117","odd","489035","491472","490972","490262","NA","NA","488035","492201","526","NA","NA","488032","495896","NA","488032","124586","NA","488035","528","New experiment","NA","0","0","0","yes","1024"
"undefined","undefined","undefined","undefined","black","no","legacy","0","uniform","undefined","undefined","undefined","46","46","93","46","46","NA","46","46","0","0","0","46","46","0","46","0","NA","46","0","Fri 26 Jul 2019 12:52:33 PM PDT","500","1000","The main experiment item","yes","NA","ABX_v3.osexp","/home/ubuntu/Desktop/panara","yes","no","mono","no","18","no","white","no","yes","768","46","46","/home/ubuntu/Desktop/panara/subject-117.csv","Jazzy James","3.1.3","3.1.4.wav","3.1.4.wav","3.1.2.wav","0","1","NA","1","NA","2043","NA","2043","NA","124058","space","2","1024","2","48000","-16","experiment","3.1.2.wav","3.1.4.wav","3.1.4.wav","117","odd","497048","499610","499110","498325","NA","NA","496047","500388","526","NA","NA","496045","502431","NA","496044","124586","NA","496048","528","New experiment","NA","0","0","0","yes","1024"
"undefined","undefined","undefined","undefined","black","no","legacy","0","uniform","undefined","undefined","undefined","47","47","95","47","47","NA","47","47","0","0","0","47","47","0","47","0","NA","47","0","Fri 26 Jul 2019 12:52:33 PM PDT","500","1000","The main experiment item","yes","NA","ABX_v3.osexp","/home/ubuntu/Desktop/panara","no","no","mono","no","18","no","white","no","yes","768","47","47","/home/ubuntu/Desktop/panara/subject-117.csv","Jazzy James","3.1.3","1.2.2.wav","1.2.2.wav","1.2.4.wav","0","1","NA","1","NA","1504","NA","1504","NA","124058","space","2","1024","2","48000","-16","experiment","1.2.2.wav","1.2.4.wav","1.2.2.wav","117","odd","503593","506150","505650","504879","NA","NA","502593","506894","526","NA","NA","502591","508399","NA","502591","124586","NA","502593","528","New experiment","NA","0","0","0","yes","1024"
"undefined","undefined","undefined","undefined","black","no","legacy","0","uniform","undefined","undefined","undefined","48","48","97","48","48","NA","48","48","0","0","0","48","48","0","48","0","NA","48","0","Fri 26 Jul 2019 12:52:33 PM PDT","500","1000","The main experiment item","yes","NA","ABX_v3.osexp","/home/ubuntu/Desktop/panara","no","no","mono","no","18","no","white","no","yes","768","48","48","/home/ubuntu/Desktop/panara/subject-117.csv","Jazzy James","3.1.3","4.2.3.wav","4.2.5.wav","4.2.5.wav","0","0","NA","0","NA","1253","NA","1253","NA","124058","space","2","1024","2","48000","-16","experiment","4.2.3.wav","4.2.5.wav","4.2.5.wav","117","odd","509564","512047","511547","510792","NA","NA","508564","512760","526","NA","NA","508562","514013","NA","508561","124586","NA","508564","528","New experiment","NA","0","0","0","yes","1024"
"undefined","undefined","undefined","undefined","black","no","legacy","0","uniform","undefined","undefined","undefined","49","49","99","49","49","NA","49","49","0","0","0","49","49","0","49","0","NA","49","0","Fri 26 Jul 2019 12:52:33 PM PDT","500","1000","The main experiment item","yes","NA","ABX_v3.osexp","/home/ubuntu/Desktop/panara","yes","no","mono","no","18","no","white","no","yes","768","49","49","/home/ubuntu/Desktop/panara/subject-117.csv","Jazzy James","3.1.3","3.2.5.wav","3.2.3.wav","3.2.3.wav","0","1","NA","1","NA","2823","NA","2823","NA","124058","space","2","1024","2","48000","-16","experiment","3.2.3.wav","3.2.5.wav","3.2.3.wav","117","odd","515177","517736","517236","516484","NA","NA","514176","518494","526","NA","NA","514173","521318","NA","514173","124586","NA","514176","528","New experiment","NA","0","0","0","yes","1024"
"undefined","undefined","undefined","undefined","black","no","legacy","0","uniform","undefined","undefined","undefined","50","50","101","50","50","NA","50","50","0","0","0","50","50","0","50","0","NA","50","0","Fri 26 Jul 2019 12:52:33 PM PDT","500","1000","The main experiment item","yes","NA","ABX_v3.osexp","/home/ubuntu/Desktop/panara","no","no","mono","no","18","no","white","no","yes","768","50","50","/home/ubuntu/Desktop/panara/subject-117.csv","Jazzy James","3.1.3","2.1.1.wav","2.1.1.wav","2.1.3.wav","0","0","1","0","NA","5727","41765","5727","NA","124058","space","2","1024","2","48000","-16","experiment","2.1.1.wav","2.1.3.wav","2.1.1.wav","117","odd","564246","566737","566237","565485","521478","NA","563245","567491","526","NA","NA","521476","573218","NA","521476","124586","NA","563245","528","New experiment","NA","0","0","0","yes","1024"
"undefined","undefined","undefined","undefined","black","no","legacy","0","uniform","undefined","undefined","undefined","51","51","103","51","51","NA","51","51","0","0","0","51","51","0","51","0","NA","51","0","Fri 26 Jul 2019 12:52:33 PM PDT","500","1000","The main experiment item","yes","NA","ABX_v3.osexp","/home/ubuntu/Desktop/panara","yes","no","mono","no","18","no","white","no","yes","768","51","51","/home/ubuntu/Desktop/panara/subject-117.csv","Jazzy James","3.1.3","2.1.3.wav","2.1.3.wav","2.1.1.wav","0","1","1","1","NA","3269","41765","3269","NA","124058","space","2","1024","2","48000","-16","experiment","2.1.1.wav","2.1.3.wav","2.1.3.wav","117","odd","574379","576898","576398","575640","521478","NA","573379","577652","526","NA","NA","573376","580922","NA","573376","124586","NA","573379","528","New experiment","NA","0","0","0","yes","1024"
"undefined","undefined","undefined","undefined","black","no","legacy","0","uniform","undefined","undefined","undefined","52","52","105","52","52","NA","52","52","0","0","0","52","52","0","52","0","NA","52","0","Fri 26 Jul 2019 12:52:33 PM PDT","500","1000","The main experiment item","yes","NA","ABX_v3.osexp","/home/ubuntu/Desktop/panara","no","no","mono","no","18","no","white","no","yes","768","52","52","/home/ubuntu/Desktop/panara/subject-117.csv","Jazzy James","3.1.3","4.2.2.wav","4.2.4.wav","4.2.4.wav","0","0","1","0","NA","2343","41765","2343","NA","124058","space","2","1024","2","48000","-16","experiment","4.2.2.wav","4.2.4.wav","4.2.4.wav","117","odd","582079","584541","584041","583291","521478","NA","581078","585282","526","NA","NA","581076","587625","NA","581076","124586","NA","581079","528","New experiment","NA","0","0","0","yes","1024"
"undefined","undefined","undefined","undefined","black","no","legacy","0","uniform","undefined","undefined","undefined","53","53","107","53","53","NA","53","53","0","0","0","53","53","0","53","0","NA","53","0","Fri 26 Jul 2019 12:52:33 PM PDT","500","1000","The main experiment item","yes","NA","ABX_v3.osexp","/home/ubuntu/Desktop/panara","no","no","mono","no","18","no","white","no","yes","768","53","53","/home/ubuntu/Desktop/panara/subject-117.csv","Jazzy James","3.1.3","5.2.3.wav","5.2.5.wav","5.2.5.wav","0","0","1","0","NA","426","41765","426","NA","124058","space","2","1024","2","48000","-16","experiment","5.2.3.wav","5.2.5.wav","5.2.5.wav","117","odd","588786","591269","590769","590047","521478","NA","587786","592023","526","NA","NA","587784","592449","NA","587784","124586","NA","587786","528","New experiment","NA","0","0","0","yes","1024"
"undefined","undefined","undefined","undefined","black","no","legacy","0","uniform","undefined","undefined","undefined","54","54","109","54","54","NA","54","54","0","0","0","54","54","0","54","0","NA","54","0","Fri 26 Jul 2019 12:52:33 PM PDT","500","1000","The main experiment item","yes","NA","ABX_v3.osexp","/home/ubuntu/Desktop/panara","yes","no","mono","no","18","no","white","no","yes","768","0","53","/home/ubuntu/Desktop/panara/subject-117.csv","Jazzy James","3.1.3","3.1.3.wav","4.1.3.wav","4.1.1.wav","0","1","1","1","NA","6037","41765","6037","NA","124058","space","2","1024","2","48000","-16","experiment","4.1.1.wav","3.1.3.wav","4.1.3.wav","117","odd","593643","596127","595627","594881","521478","NA","592643","596851","526","NA","NA","592640","602889","592574","592640","124586","NA","592643","528","New experiment","NA","0","0","0","yes","1024"
"undefined","undefined","undefined","undefined","black","no","legacy","0","uniform","undefined","undefined","undefined","55","55","111","55","55","NA","55","55","0","0","0","55","55","0","55","0","NA","55","0","Fri 26 Jul 2019 12:52:33 PM PDT","500","1000","The main experiment item","yes","NA","ABX_v3.osexp","/home/ubuntu/Desktop/panara","no","no","mono","no","18","no","white","no","yes","768","1","53","/home/ubuntu/Desktop/panara/subject-117.csv","Jazzy James","3.1.3","3.2.3.wav","3.2.5.wav","1.2.5.wav","0","1","1","1","NA","2138","41765","2138","NA","124058","space","2","1024","2","48000","-16","experiment","3.2.3.wav","1.2.5.wav","3.2.5.wav","117","odd","604049","606593","606093","605313","521478","NA","603049","607374","526","NA","NA","603047","609512","592574","603047","124586","NA","603049","528","New experiment","NA","0","0","0","yes","1024"
"undefined","undefined","undefined","undefined","black","no","legacy","0","uniform","undefined","undefined","undefined","56","56","113","56","56","NA","56","56","0","0","0","56","56","0","56","0","NA","56","0","Fri 26 Jul 2019 12:52:33 PM PDT","500","1000","The main experiment item","yes","NA","ABX_v3.osexp","/home/ubuntu/Desktop/panara","no","no","mono","no","18","no","white","no","yes","768","2","53","/home/ubuntu/Desktop/panara/subject-117.csv","Jazzy James","3.1.3","1.2.1.wav","1.2.3.wav","2.2.3.wav","0","1","1","1","NA","1872","41765","1872","NA","124058","space","2","1024","2","48000","-16","experiment","1.2.1.wav","2.2.3.wav","1.2.3.wav","117","odd","610701","613235","612735","611955","521478","NA","609701","613959","526","NA","NA","609698","615832","592574","609698","124586","NA","609701","528","New experiment","NA","0","0","0","yes","1024"
"undefined","undefined","undefined","undefined","black","no","legacy","0","uniform","undefined","undefined","undefined","57","57","115","57","57","NA","57","57","0","0","0","57","57","0","57","0","NA","57","0","Fri 26 Jul 2019 12:52:33 PM PDT","500","1000","The main experiment item","yes","NA","ABX_v3.osexp","/home/ubuntu/Desktop/panara","yes","no","mono","no","18","no","white","no","yes","768","3","53","/home/ubuntu/Desktop/panara/subject-117.csv","Jazzy James","3.1.3","1.1.3.wav","1.1.1.wav","2.1.1.wav","0","1","1","1","NA","1520","41765","1520","NA","124058","space","2","1024","2","48000","-16","experiment","2.1.1.wav","1.1.3.wav","1.1.1.wav","117","odd","616982","619549","619049","618271","521478","NA","615982","620303","526","NA","NA","615979","621823","592574","615979","124586","NA","615982","528","New experiment","NA","0","0","0","yes","1024"
"undefined","undefined","undefined","undefined","black","no","legacy","0","uniform","undefined","undefined","undefined","58","58","117","58","58","NA","58","58","0","0","0","58","58","0","58","0","NA","58","0","Fri 26 Jul 2019 12:52:33 PM PDT","500","1000","The main experiment item","yes","NA","ABX_v3.osexp","/home/ubuntu/Desktop/panara","yes","no","mono","no","18","no","white","no","yes","768","4","53","/home/ubuntu/Desktop/panara/subject-117.csv","Jazzy James","3.1.3","2.2.5.wav","2.2.3.wav","2.1.3.wav","0","0","1","0","NA","1001","41765","1001","NA","124058","space","2","1024","2","48000","-16","experiment","2.1.3.wav","2.2.5.wav","2.2.3.wav","117","odd","622982","625442","624942","624205","521478","NA","621982","626189","526","NA","NA","621979","627191","592574","621979","124586","NA","621982","528","New experiment","NA","0","0","0","yes","1024"
"undefined","undefined","undefined","undefined","black","no","legacy","0","uniform","undefined","undefined","undefined","59","59","119","59","59","NA","59","59","0","0","0","59","59","0","59","0","NA","59","0","Fri 26 Jul 2019 12:52:33 PM PDT","500","1000","The main experiment item","yes","NA","ABX_v3.osexp","/home/ubuntu/Desktop/panara","no","no","mono","no","18","no","white","no","yes","768","5","53","/home/ubuntu/Desktop/panara/subject-117.csv","Jazzy James","3.1.3","3.2.1.wav","3.2.3.wav","1.2.3.wav","0","1","1","1","NA","907","41765","907","NA","124058","space","2","1024","2","48000","-16","experiment","3.2.1.wav","1.2.3.wav","3.2.3.wav","117","odd","628353","630861","630361","629617","521478","NA","627352","631643","526","NA","NA","627350","632551","592574","627350","124586","NA","627353","528","New experiment","NA","0","0","0","yes","1024"
"undefined","undefined","undefined","undefined","black","no","legacy","0","uniform","undefined","undefined","undefined","60","60","121","60","60","NA","60","60","0","0","0","60","60","0","60","0","NA","60","0","Fri 26 Jul 2019 12:52:33 PM PDT","500","1000","The main experiment item","yes","NA","ABX_v3.osexp","/home/ubuntu/Desktop/panara","no","no","mono","no","18","no","white","no","yes","768","6","53","/home/ubuntu/Desktop/panara/subject-117.csv","Jazzy James","3.1.3","4.1.3.wav","4.1.5.wav","3.1.5.wav","0","0","1","0","NA","2117","41765","2117","NA","124058","space","2","1024","2","48000","-16","experiment","4.1.3.wav","3.1.5.wav","4.1.5.wav","117","odd","633718","636145","635645","634930","521478","NA","632718","636920","526","NA","NA","632715","639037","592574","632715","124586","NA","632718","528","New experiment","NA","0","0","0","yes","1024"
"undefined","undefined","undefined","undefined","black","no","legacy","0","uniform","undefined","undefined","undefined","61","61","123","61","61","NA","61","61","0","0","0","61","61","0","61","0","NA","61","0","Fri 26 Jul 2019 12:52:33 PM PDT","500","1000","The main experiment item","yes","NA","ABX_v3.osexp","/home/ubuntu/Desktop/panara","no","no","mono","no","18","no","white","no","yes","768","7","53","/home/ubuntu/Desktop/panara/subject-117.csv","Jazzy James","3.1.3","4.1.2.wav","2.1.2.wav","2.1.4.wav","0","0","1","0","NA","879","41765","879","NA","124058","space","2","1024","2","48000","-16","experiment","4.1.2.wav","2.1.4.wav","2.1.2.wav","117","odd","640238","642708","642208","641457","521478","NA","639237","643462","526","NA","NA","639235","644342","592574","639235","124586","NA","639238","528","New experiment","NA","0","0","0","yes","1024"
"undefined","undefined","undefined","undefined","black","no","legacy","0","uniform","undefined","undefined","undefined","62","62","125","62","62","NA","62","62","0","0","0","62","62","0","62","0","NA","62","0","Fri 26 Jul 2019 12:52:33 PM PDT","500","1000","The main experiment item","yes","NA","ABX_v3.osexp","/home/ubuntu/Desktop/panara","no","no","mono","no","18","no","white","no","yes","768","8","53","/home/ubuntu/Desktop/panara/subject-117.csv","Jazzy James","3.1.3","4.2.2.wav","3.2.2.wav","3.2.4.wav","0","1","1","1","NA","4513","41765","4513","NA","124058","space","2","1024","2","48000","-16","experiment","4.2.2.wav","3.2.4.wav","3.2.2.wav","117","odd","645509","648026","647526","646747","521478","NA","644509","648780","526","NA","NA","644507","653293","592574","644507","124586","NA","644509","528","New experiment","NA","0","0","0","yes","1024"
"undefined","undefined","undefined","undefined","black","no","legacy","0","uniform","undefined","undefined","undefined","63","63","127","63","63","NA","63","63","0","0","0","63","63","0","63","0","NA","63","0","Fri 26 Jul 2019 12:52:33 PM PDT","500","1000","The main experiment item","yes","NA","ABX_v3.osexp","/home/ubuntu/Desktop/panara","yes","no","mono","no","18","no","white","no","yes","768","9","53","/home/ubuntu/Desktop/panara/subject-117.csv","Jazzy James","3.1.3","3.1.5.wav","3.2.5.wav","3.2.3.wav","0","0","1","0","NA","1200","41765","1200","NA","124058","space","2","1024","2","48000","-16","experiment","3.2.3.wav","3.1.5.wav","3.2.5.wav","117","odd","654430","656978","656478","655706","521478","NA","653430","657733","526","NA","NA","653427","658933","592574","653427","124586","NA","653430","528","New experiment","NA","0","0","0","yes","1024"
"undefined","undefined","undefined","undefined","black","no","legacy","0","uniform","undefined","undefined","undefined","64","64","129","64","64","NA","64","64","0","0","0","64","64","0","64","0","NA","64","0","Fri 26 Jul 2019 12:52:33 PM PDT","500","1000","The main experiment item","yes","NA","ABX_v3.osexp","/home/ubuntu/Desktop/panara","yes","no","mono","no","18","no","white","no","yes","768","10","53","/home/ubuntu/Desktop/panara/subject-117.csv","Jazzy James","3.1.3","3.2.3.wav","4.2.3.wav","4.2.1.wav","0","1","1","1","NA","1282","41765","1282","NA","124058","space","2","1024","2","48000","-16","experiment","4.2.1.wav","3.2.3.wav","4.2.3.wav","117","odd","660099","662611","662111","661358","521478","NA","659098","663338","526","NA","NA","659096","664621","592574","659096","124586","NA","659099","528","New experiment","NA","0","0","0","yes","1024"
"undefined","undefined","undefined","undefined","black","no","legacy","0","uniform","undefined","undefined","undefined","65","65","131","65","65","NA","65","65","0","0","0","65","65","0","65","0","NA","65","0","Fri 26 Jul 2019 12:52:33 PM PDT","500","1000","The main experiment item","yes","NA","ABX_v3.osexp","/home/ubuntu/Desktop/panara","no","no","mono","no","18","no","white","no","yes","768","11","53","/home/ubuntu/Desktop/panara/subject-117.csv","Jazzy James","3.1.3","2.2.2.wav","4.2.2.wav","4.2.4.wav","0","0","1","0","NA","544","41765","544","NA","124058","space","2","1024","2","48000","-16","experiment","2.2.2.wav","4.2.4.wav","4.2.2.wav","117","odd","665800","668271","667771","667018","521478","NA","664800","668996","526","NA","NA","664797","669540","592574","664797","124586","NA","664800","528","New experiment","NA","0","0","0","yes","1024"
"undefined","undefined","undefined","undefined","black","no","legacy","0","uniform","undefined","undefined","undefined","66","66","133","66","66","NA","66","66","0","0","0","66","66","0","66","0","NA","66","0","Fri 26 Jul 2019 12:52:33 PM PDT","500","1000","The main experiment item","yes","NA","ABX_v3.osexp","/home/ubuntu/Desktop/panara","yes","no","mono","no","18","no","white","no","yes","768","12","53","/home/ubuntu/Desktop/panara/subject-117.csv","Jazzy James","3.1.3","3.2.4.wav","3.2.2.wav","1.2.2.wav","0","1","1","1","NA","1181","41765","1181","NA","124058","space","2","1024","2","48000","-16","experiment","1.2.2.wav","3.2.4.wav","3.2.2.wav","117","odd","670699","673242","672742","671961","521478","NA","669699","674023","526","NA","NA","669697","675204","592574","669697","124586","NA","669699","528","New experiment","NA","0","0","0","yes","1024"
"undefined","undefined","undefined","undefined","black","no","legacy","0","uniform","undefined","undefined","undefined","67","67","135","67","67","NA","67","67","0","0","0","67","67","0","67","0","NA","67","0","Fri 26 Jul 2019 12:52:33 PM PDT","500","1000","The main experiment item","yes","NA","ABX_v3.osexp","/home/ubuntu/Desktop/panara","no","no","mono","no","18","no","white","no","yes","768","13","53","/home/ubuntu/Desktop/panara/subject-117.csv","Jazzy James","3.1.3","2.2.1.wav","1.2.1.wav","1.2.3.wav","0","0","1","0","NA","1055","41765","1055","NA","124058","space","2","1024","2","48000","-16","experiment","2.2.1.wav","1.2.3.wav","1.2.1.wav","117","odd","676385","678900","678400","677621","521478","NA","675384","679676","526","NA","NA","675382","680732","592574","675382","124586","NA","675385","528","New experiment","NA","0","0","0","yes","1024"
"undefined","undefined","undefined","undefined","black","no","legacy","0","uniform","undefined","undefined","undefined","68","68","137","68","68","NA","68","68","0","0","0","68","68","0","68","0","NA","68","0","Fri 26 Jul 2019 12:52:33 PM PDT","500","1000","The main experiment item","yes","NA","ABX_v3.osexp","/home/ubuntu/Desktop/panara","no","no","mono","no","18","no","white","no","yes","768","14","53","/home/ubuntu/Desktop/panara/subject-117.csv","Jazzy James","3.1.3","3.2.2.wav","3.2.4.wav","3.1.4.wav","0","0","1","0","NA","912","41765","912","NA","124058","space","2","1024","2","48000","-16","experiment","3.2.2.wav","3.1.4.wav","3.2.4.wav","117","odd","681883","684404","683904","683153","521478","NA","680882","685187","526","NA","NA","680880","686099","592574","680880","124586","NA","680883","528","New experiment","NA","0","0","0","yes","1024"
"undefined","undefined","undefined","undefined","black","no","legacy","0","uniform","undefined","undefined","undefined","69","69","139","69","69","NA","69","69","0","0","0","69","69","0","69","0","NA","69","0","Fri 26 Jul 2019 12:52:33 PM PDT","500","1000","The main experiment item","yes","NA","ABX_v3.osexp","/home/ubuntu/Desktop/panara","yes","no","mono","no","18","no","white","no","yes","768","15","53","/home/ubuntu/Desktop/panara/subject-117.csv","Jazzy James","3.1.3","2.1.5.wav","2.1.3.wav","4.1.3.wav","0","1","1","1","NA","1906","41765","1906","NA","124058","space","2","1024","2","48000","-16","experiment","4.1.3.wav","2.1.5.wav","2.1.3.wav","117","odd","687241","689752","689252","688499","521478","NA","686241","690473","526","NA","NA","686239","692379","592574","686239","124586","NA","686241","528","New experiment","NA","0","0","0","yes","1024"
"undefined","undefined","undefined","undefined","black","no","legacy","0","uniform","undefined","undefined","undefined","70","70","141","70","70","NA","70","70","0","0","0","70","70","0","70","0","NA","70","0","Fri 26 Jul 2019 12:52:33 PM PDT","500","1000","The main experiment item","yes","NA","ABX_v3.osexp","/home/ubuntu/Desktop/panara","no","no","mono","no","18","no","white","no","yes","768","16","53","/home/ubuntu/Desktop/panara/subject-117.csv","Jazzy James","3.1.3","4.1.3.wav","4.1.5.wav","4.2.5.wav","0","0","1","0","NA","784","41765","784","NA","124058","space","2","1024","2","48000","-16","experiment","4.1.3.wav","4.2.5.wav","4.1.5.wav","117","odd","693562","696046","695546","694793","521478","NA","692562","696770","526","NA","NA","692560","697555","592574","692560","124586","NA","692562","528","New experiment","NA","0","0","0","yes","1024"
"undefined","undefined","undefined","undefined","black","no","legacy","0","uniform","undefined","undefined","undefined","71","71","143","71","71","NA","71","71","0","0","0","71","71","0","71","0","NA","71","0","Fri 26 Jul 2019 12:52:33 PM PDT","500","1000","The main experiment item","yes","NA","ABX_v3.osexp","/home/ubuntu/Desktop/panara","yes","no","mono","no","18","no","white","no","yes","768","17","53","/home/ubuntu/Desktop/panara/subject-117.csv","Jazzy James","3.1.3","1.1.3.wav","1.2.3.wav","1.2.1.wav","0","1","1","1","NA","876","41765","876","NA","124058","space","2","1024","2","48000","-16","experiment","1.2.1.wav","1.1.3.wav","1.2.3.wav","117","odd","698742","701336","700836","700057","521478","NA","697741","702110","526","NA","NA","697739","702986","592574","697739","124586","NA","697742","528","New experiment","NA","0","0","0","yes","1024"
"undefined","undefined","undefined","undefined","black","no","legacy","0","uniform","undefined","undefined","undefined","72","72","145","72","72","NA","72","72","0","0","0","72","72","0","72","0","NA","72","0","Fri 26 Jul 2019 12:52:33 PM PDT","500","1000","The main experiment item","yes","NA","ABX_v3.osexp","/home/ubuntu/Desktop/panara","yes","no","mono","no","18","no","white","no","yes","768","18","53","/home/ubuntu/Desktop/panara/subject-117.csv","Jazzy James","3.1.3","2.2.4.wav","2.1.4.wav","2.1.2.wav","0","0","1","0","NA","1001","41765","1001","NA","124058","space","2","1024","2","48000","-16","experiment","2.1.2.wav","2.2.4.wav","2.1.4.wav","117","odd","704164","706638","706138","705389","521478","NA","703164","707393","526","NA","NA","703161","708394","592574","703161","124586","NA","703164","528","New experiment","NA","0","0","0","yes","1024"
"undefined","undefined","undefined","undefined","black","no","legacy","0","uniform","undefined","undefined","undefined","73","73","147","73","73","NA","73","73","0","0","0","73","73","0","73","0","NA","73","0","Fri 26 Jul 2019 12:52:33 PM PDT","500","1000","The main experiment item","yes","NA","ABX_v3.osexp","/home/ubuntu/Desktop/panara","yes","no","mono","no","18","no","white","no","yes","768","19","53","/home/ubuntu/Desktop/panara/subject-117.csv","Jazzy James","3.1.3","3.2.5.wav","1.2.5.wav","1.2.3.wav","0","0","1","0","NA","769","41765","769","NA","124058","space","2","1024","2","48000","-16","experiment","1.2.3.wav","3.2.5.wav","1.2.5.wav","117","odd","709576","712123","711623","710852","521478","NA","708576","712896","526","NA","NA","708573","713666","592574","708573","124586","NA","708576","528","New experiment","NA","0","0","0","yes","1024"
"undefined","undefined","undefined","undefined","black","no","legacy","0","uniform","undefined","undefined","undefined","74","74","149","74","74","NA","74","74","0","0","0","74","74","0","74","0","NA","74","0","Fri 26 Jul 2019 12:52:33 PM PDT","500","1000","The main experiment item","yes","NA","ABX_v3.osexp","/home/ubuntu/Desktop/panara","yes","no","mono","no","18","no","white","no","yes","768","20","53","/home/ubuntu/Desktop/panara/subject-117.csv","Jazzy James","3.1.3","3.2.4.wav","3.1.4.wav","3.1.2.wav","0","0","1","0","NA","1181","41765","1181","NA","124058","space","2","1024","2","48000","-16","experiment","3.1.2.wav","3.2.4.wav","3.1.4.wav","117","odd","714826","717350","716850","716069","521478","NA","713826","718132","526","NA","NA","713823","719314","592574","713823","124586","NA","713826","528","New experiment","NA","0","0","0","yes","1024"
"undefined","undefined","undefined","undefined","black","no","legacy","0","uniform","undefined","undefined","undefined","75","75","151","75","75","NA","75","75","0","0","0","75","75","0","75","0","NA","75","0","Fri 26 Jul 2019 12:52:33 PM PDT","500","1000","The main experiment item","yes","NA","ABX_v3.osexp","/home/ubuntu/Desktop/panara","no","no","mono","no","18","no","white","no","yes","768","21","53","/home/ubuntu/Desktop/panara/subject-117.csv","Jazzy James","3.1.3","1.1.2.wav","1.1.4.wav","3.1.4.wav","0","1","1","1","NA","836","41765","836","NA","124058","space","2","1024","2","48000","-16","experiment","1.1.2.wav","3.1.4.wav","1.1.4.wav","117","odd","720509","723087","722587","721807","521478","NA","719509","723869","526","NA","NA","719507","724705","592574","719506","124586","NA","719509","528","New experiment","NA","0","0","0","yes","1024"
"undefined","undefined","undefined","undefined","black","no","legacy","0","uniform","undefined","undefined","undefined","76","76","153","76","76","NA","76","76","0","0","0","76","76","0","76","0","NA","76","0","Fri 26 Jul 2019 12:52:33 PM PDT","500","1000","The main experiment item","yes","NA","ABX_v3.osexp","/home/ubuntu/Desktop/panara","no","no","mono","no","18","no","white","no","yes","768","22","53","/home/ubuntu/Desktop/panara/subject-117.csv","Jazzy James","3.1.3","3.2.3.wav","1.2.3.wav","1.2.5.wav","0","0","1","0","NA","863","41765","863","NA","124058","space","2","1024","2","48000","-16","experiment","3.2.3.wav","1.2.5.wav","1.2.3.wav","117","odd","725856","728370","727869","727097","521478","NA","724855","729152","526","NA","NA","724853","730016","592574","724853","124586","NA","724855","528","New experiment","NA","0","0","0","yes","1024"
"undefined","undefined","undefined","undefined","black","no","legacy","0","uniform","undefined","undefined","undefined","77","77","155","77","77","NA","77","77","0","0","0","77","77","0","77","0","NA","77","0","Fri 26 Jul 2019 12:52:33 PM PDT","500","1000","The main experiment item","yes","NA","ABX_v3.osexp","/home/ubuntu/Desktop/panara","no","no","mono","no","18","no","white","no","yes","768","23","53","/home/ubuntu/Desktop/panara/subject-117.csv","Jazzy James","3.1.3","1.2.3.wav","3.2.3.wav","3.2.5.wav","0","0","1","0","NA","451","41765","451","NA","124058","space","2","1024","2","48000","-16","experiment","1.2.3.wav","3.2.5.wav","3.2.3.wav","117","odd","731178","733718","733218","732465","521478","NA","730178","734501","526","NA","NA","730176","734953","592574","730176","124586","NA","730178","528","New experiment","NA","0","0","0","yes","1024"
"undefined","undefined","undefined","undefined","black","no","legacy","0","uniform","undefined","undefined","undefined","78","78","157","78","78","NA","78","78","0","0","0","78","78","0","78","0","NA","78","0","Fri 26 Jul 2019 12:52:33 PM PDT","500","1000","The main experiment item","yes","NA","ABX_v3.osexp","/home/ubuntu/Desktop/panara","no","no","mono","no","18","no","white","no","yes","768","24","53","/home/ubuntu/Desktop/panara/subject-117.csv","Jazzy James","3.1.3","4.2.1.wav","4.2.3.wav","4.1.3.wav","0","1","1","1","NA","1107","41765","1107","NA","124058","space","2","1024","2","48000","-16","experiment","4.2.1.wav","4.1.3.wav","4.2.3.wav","117","odd","736129","738631","738131","737387","521478","NA","735128","739349","526","NA","NA","735126","740456","592574","735126","124586","NA","735129","528","New experiment","NA","0","0","0","yes","1024"
"undefined","undefined","undefined","undefined","black","no","legacy","0","uniform","undefined","undefined","undefined","79","79","159","79","79","NA","79","79","0","0","0","79","79","0","79","0","NA","79","0","Fri 26 Jul 2019 12:52:33 PM PDT","500","1000","The main experiment item","yes","NA","ABX_v3.osexp","/home/ubuntu/Desktop/panara","no","no","mono","no","18","no","white","no","yes","768","25","53","/home/ubuntu/Desktop/panara/subject-117.csv","Jazzy James","3.1.3","1.2.1.wav","2.2.1.wav","2.2.3.wav","0","1","1","1","NA","2032","41765","2032","NA","124058","space","2","1024","2","48000","-16","experiment","1.2.1.wav","2.2.3.wav","2.2.1.wav","117","odd","741613","744108","743608","742890","521478","NA","740613","744831","526","NA","NA","740610","746864","592574","740610","124586","NA","740613","528","New experiment","NA","0","0","0","yes","1024"
"undefined","undefined","undefined","undefined","black","no","legacy","0","uniform","undefined","undefined","undefined","80","80","161","80","80","NA","80","80","0","0","0","80","80","0","80","0","NA","80","0","Fri 26 Jul 2019 12:52:33 PM PDT","500","1000","The main experiment item","yes","NA","ABX_v3.osexp","/home/ubuntu/Desktop/panara","no","no","mono","no","18","no","white","no","yes","768","26","53","/home/ubuntu/Desktop/panara/subject-117.csv","Jazzy James","3.1.3","2.2.3.wav","2.1.3.wav","2.1.5.wav","0","1","1","1","NA","1072","41765","1072","NA","124058","space","2","1024","2","48000","-16","experiment","2.2.3.wav","2.1.5.wav","2.1.3.wav","117","odd","748027","750491","749991","749247","521478","NA","747027","751247","526","NA","NA","747024","752320","592574","747024","124586","NA","747027","528","New experiment","NA","0","0","0","yes","1024"
"undefined","undefined","undefined","undefined","black","no","legacy","0","uniform","undefined","undefined","undefined","81","81","163","81","81","NA","81","81","0","0","0","81","81","0","81","0","NA","81","0","Fri 26 Jul 2019 12:52:33 PM PDT","500","1000","The main experiment item","yes","NA","ABX_v3.osexp","/home/ubuntu/Desktop/panara","no","no","mono","no","18","no","white","no","yes","768","27","53","/home/ubuntu/Desktop/panara/subject-117.csv","Jazzy James","3.1.3","4.2.3.wav","4.2.5.wav","2.2.5.wav","0","1","1","1","NA","866","41765","866","NA","124058","space","2","1024","2","48000","-16","experiment","4.2.3.wav","2.2.5.wav","4.2.5.wav","117","odd","753485","755966","755466","754743","521478","NA","752485","756685","526","NA","NA","752482","757551","592574","752482","124586","NA","752485","528","New experiment","NA","0","0","0","yes","1024"
"undefined","undefined","undefined","undefined","black","no","legacy","0","uniform","undefined","undefined","undefined","82","82","165","82","82","NA","82","82","0","0","0","82","82","0","82","0","NA","82","0","Fri 26 Jul 2019 12:52:33 PM PDT","500","1000","The main experiment item","yes","NA","ABX_v3.osexp","/home/ubuntu/Desktop/panara","no","no","mono","no","18","no","white","no","yes","768","28","53","/home/ubuntu/Desktop/panara/subject-117.csv","Jazzy James","3.1.3","4.2.2.wav","4.1.2.wav","4.1.4.wav","0","0","1","0","NA","1404","41765","1404","NA","124058","space","2","1024","2","48000","-16","experiment","4.2.2.wav","4.1.4.wav","4.1.2.wav","117","odd","758719","761174","760674","759935","521478","NA","757719","761898","526","NA","NA","757716","763303","592574","757716","124586","NA","757719","528","New experiment","NA","0","0","0","yes","1024"
"undefined","undefined","undefined","undefined","black","no","legacy","0","uniform","undefined","undefined","undefined","83","83","167","83","83","NA","83","83","0","0","0","83","83","0","83","0","NA","83","0","Fri 26 Jul 2019 12:52:33 PM PDT","500","1000","The main experiment item","yes","NA","ABX_v3.osexp","/home/ubuntu/Desktop/panara","yes","no","mono","no","18","no","white","no","yes","768","29","53","/home/ubuntu/Desktop/panara/subject-117.csv","Jazzy James","3.1.3","4.1.4.wav","4.1.2.wav","2.1.2.wav","0","1","1","1","NA","803","41765","803","NA","124058","space","2","1024","2","48000","-16","experiment","2.1.2.wav","4.1.4.wav","4.1.2.wav","117","odd","764460","766954","766454","765709","521478","NA","763460","767707","526","NA","NA","763457","768511","592574","763457","124586","NA","763460","528","New experiment","NA","0","0","0","yes","1024"
"undefined","undefined","undefined","undefined","black","no","legacy","0","uniform","undefined","undefined","undefined","84","84","169","84","84","NA","84","84","0","0","0","84","84","0","84","0","NA","84","0","Fri 26 Jul 2019 12:52:33 PM PDT","500","1000","The main experiment item","yes","NA","ABX_v3.osexp","/home/ubuntu/Desktop/panara","no","no","mono","no","18","no","white","no","yes","768","30","53","/home/ubuntu/Desktop/panara/subject-117.csv","Jazzy James","3.1.3","3.2.1.wav","3.2.3.wav","3.1.3.wav","0","0","1","0","NA","977","41765","977","NA","124058","space","2","1024","2","48000","-16","experiment","3.2.1.wav","3.1.3.wav","3.2.3.wav","117","odd","769676","772186","771686","770935","521478","NA","768675","772941","526","NA","NA","768673","773919","592574","768673","124586","NA","768676","528","New experiment","NA","0","0","0","yes","1024"
"undefined","undefined","undefined","undefined","black","no","legacy","0","uniform","undefined","undefined","undefined","85","85","171","85","85","NA","85","85","0","0","0","85","85","0","85","0","NA","85","0","Fri 26 Jul 2019 12:52:33 PM PDT","500","1000","The main experiment item","yes","NA","ABX_v3.osexp","/home/ubuntu/Desktop/panara","yes","no","mono","no","18","no","white","no","yes","768","31","53","/home/ubuntu/Desktop/panara/subject-117.csv","Jazzy James","3.1.3","4.2.4.wav","4.1.4.wav","4.1.2.wav","0","1","1","1","NA","809","41765","809","NA","124058","space","2","1024","2","48000","-16","experiment","4.1.2.wav","4.2.4.wav","4.1.4.wav","117","odd","775073","777512","777011","776303","521478","NA","774073","778237","526","NA","NA","774071","779046","592574","774071","124586","NA","774073","528","New experiment","NA","0","0","0","yes","1024"
"undefined","undefined","undefined","undefined","black","no","legacy","0","uniform","undefined","undefined","undefined","86","86","173","86","86","NA","86","86","0","0","0","86","86","0","86","0","NA","86","0","Fri 26 Jul 2019 12:52:33 PM PDT","500","1000","The main experiment item","yes","NA","ABX_v3.osexp","/home/ubuntu/Desktop/panara","no","no","mono","no","18","no","white","no","yes","768","32","53","/home/ubuntu/Desktop/panara/subject-117.csv","Jazzy James","3.1.3","2.2.1.wav","4.2.1.wav","4.2.3.wav","0","0","1","0","NA","571","41765","571","NA","124058","space","2","1024","2","48000","-16","experiment","2.2.1.wav","4.2.3.wav","4.2.1.wav","117","odd","780209","782660","782160","781438","521478","NA","779209","783394","526","NA","NA","779207","783966","592574","779207","124586","NA","779209","528","New experiment","NA","0","0","0","yes","1024"
"undefined","undefined","undefined","undefined","black","no","legacy","0","uniform","undefined","undefined","undefined","87","87","175","87","87","NA","87","87","0","0","0","87","87","0","87","0","NA","87","0","Fri 26 Jul 2019 12:52:33 PM PDT","500","1000","The main experiment item","yes","NA","ABX_v3.osexp","/home/ubuntu/Desktop/panara","yes","no","mono","no","18","no","white","no","yes","768","33","53","/home/ubuntu/Desktop/panara/subject-117.csv","Jazzy James","3.1.3","2.2.4.wav","4.2.4.wav","4.2.2.wav","0","0","1","0","NA","451","41765","451","NA","124058","space","2","1024","2","48000","-16","experiment","4.2.2.wav","2.2.4.wav","4.2.4.wav","117","odd","785119","787588","787088","786365","521478","NA","784119","788322","526","NA","NA","784117","788774","592574","784117","124586","NA","784119","528","New experiment","NA","0","0","0","yes","1024"
"undefined","undefined","undefined","undefined","black","no","legacy","0","uniform","undefined","undefined","undefined","88","88","177","88","88","NA","88","88","0","0","0","88","88","0","88","0","NA","88","0","Fri 26 Jul 2019 12:52:33 PM PDT","500","1000","The main experiment item","yes","NA","ABX_v3.osexp","/home/ubuntu/Desktop/panara","no","no","mono","no","18","no","white","no","yes","768","34","53","/home/ubuntu/Desktop/panara/subject-117.csv","Jazzy James","3.1.3","2.2.1.wav","2.1.1.wav","2.1.3.wav","0","0","1","0","NA","1168","41765","1168","NA","124058","space","2","1024","2","48000","-16","experiment","2.2.1.wav","2.1.3.wav","2.1.1.wav","117","odd","789927","792395","791895","791151","521478","NA","788927","793149","526","NA","NA","788925","794317","592574","788924","124586","NA","788927","528","New experiment","NA","0","0","0","yes","1024"
"undefined","undefined","undefined","undefined","black","no","legacy","0","uniform","undefined","undefined","undefined","89","89","179","89","89","NA","89","89","0","0","0","89","89","0","89","0","NA","89","0","Fri 26 Jul 2019 12:52:33 PM PDT","500","1000","The main experiment item","yes","NA","ABX_v3.osexp","/home/ubuntu/Desktop/panara","no","no","mono","no","18","no","white","no","yes","768","35","53","/home/ubuntu/Desktop/panara/subject-117.csv","Jazzy James","3.1.3","4.1.2.wav","3.1.2.wav","3.1.4.wav","0","0","1","0","NA","1128","41765","1128","NA","124058","space","2","1024","2","48000","-16","experiment","4.1.2.wav","3.1.4.wav","3.1.2.wav","117","odd","795481","797998","797498","796719","521478","NA","794481","798780","526","NA","NA","794478","799909","592574","794478","124586","NA","794481","528","New experiment","NA","0","0","0","yes","1024"
"undefined","undefined","undefined","undefined","black","no","legacy","0","uniform","undefined","undefined","undefined","90","90","181","90","90","NA","90","90","0","0","0","90","90","0","90","0","NA","90","0","Fri 26 Jul 2019 12:52:33 PM PDT","500","1000","The main experiment item","yes","NA","ABX_v3.osexp","/home/ubuntu/Desktop/panara","no","no","mono","no","18","no","white","no","yes","768","36","53","/home/ubuntu/Desktop/panara/subject-117.csv","Jazzy James","3.1.3","3.2.3.wav","3.2.5.wav","4.2.5.wav","0","1","1","1","NA","2235","41765","2235","NA","124058","space","2","1024","2","48000","-16","experiment","3.2.3.wav","4.2.5.wav","3.2.5.wav","117","odd","801090","803630","803130","802349","521478","NA","800090","804385","526","NA","NA","800088","806621","592574","800088","124586","NA","800090","528","New experiment","NA","0","0","0","yes","1024"
"undefined","undefined","undefined","undefined","black","no","legacy","0","uniform","undefined","undefined","undefined","91","91","183","91","91","NA","91","91","0","0","0","91","91","0","91","0","NA","91","0","Fri 26 Jul 2019 12:52:33 PM PDT","500","1000","The main experiment item","yes","NA","ABX_v3.osexp","/home/ubuntu/Desktop/panara","no","no","mono","no","18","no","white","no","yes","768","37","53","/home/ubuntu/Desktop/panara/subject-117.csv","Jazzy James","3.1.3","4.2.2.wav","4.2.4.wav","4.1.4.wav","0","0","1","0","NA","1221","41765","1221","NA","124058","space","2","1024","2","48000","-16","experiment","4.2.2.wav","4.1.4.wav","4.2.4.wav","117","odd","807797","810259","809759","809026","521478","NA","806796","810983","526","NA","NA","806794","812205","592574","806794","124586","NA","806796","528","New experiment","NA","0","0","0","yes","1024"
"undefined","undefined","undefined","undefined","black","no","legacy","0","uniform","undefined","undefined","undefined","92","92","185","92","92","NA","92","92","0","0","0","92","92","0","92","0","NA","92","0","Fri 26 Jul 2019 12:52:33 PM PDT","500","1000","The main experiment item","yes","NA","ABX_v3.osexp","/home/ubuntu/Desktop/panara","no","no","mono","no","18","no","white","no","yes","768","38","53","/home/ubuntu/Desktop/panara/subject-117.csv","Jazzy James","3.1.3","1.1.2.wav","3.1.2.wav","3.1.4.wav","0","0","1","0","NA","462","41765","462","NA","124058","space","2","1024","2","48000","-16","experiment","1.1.2.wav","3.1.4.wav","3.1.2.wav","117","odd","813370","815976","815476","814694","521478","NA","812370","816758","526","NA","NA","812367","817220","592574","812367","124586","NA","812370","528","New experiment","NA","0","0","0","yes","1024"
"undefined","undefined","undefined","undefined","black","no","legacy","0","uniform","undefined","undefined","undefined","93","93","187","93","93","NA","93","93","0","0","0","93","93","0","93","0","NA","93","0","Fri 26 Jul 2019 12:52:33 PM PDT","500","1000","The main experiment item","yes","NA","ABX_v3.osexp","/home/ubuntu/Desktop/panara","yes","no","mono","no","18","no","white","no","yes","768","39","53","/home/ubuntu/Desktop/panara/subject-117.csv","Jazzy James","3.1.3","3.2.3.wav","1.2.3.wav","1.2.1.wav","0","0","1","0","NA","594","41765","594","NA","124058","space","2","1024","2","48000","-16","experiment","1.2.1.wav","3.2.3.wav","1.2.3.wav","117","odd","818375","820887","820387","819616","521478","NA","817375","821657","526","NA","NA","817373","822252","592574","817373","124586","NA","817375","528","New experiment","NA","0","0","0","yes","1024"
"undefined","undefined","undefined","undefined","black","no","legacy","0","uniform","undefined","undefined","undefined","94","94","189","94","94","NA","94","94","0","0","0","94","94","0","94","0","NA","94","0","Fri 26 Jul 2019 12:52:33 PM PDT","500","1000","The main experiment item","yes","NA","ABX_v3.osexp","/home/ubuntu/Desktop/panara","yes","no","mono","no","18","no","white","no","yes","768","40","53","/home/ubuntu/Desktop/panara/subject-117.csv","Jazzy James","3.1.3","1.2.5.wav","1.1.5.wav","1.1.3.wav","0","0","1","0","NA","1500","41765","1500","NA","124058","space","2","1024","2","48000","-16","experiment","1.1.3.wav","1.2.5.wav","1.1.5.wav","117","odd","823390","825938","825438","824659","521478","NA","822390","826719","526","NA","NA","822388","828220","592574","822388","124586","NA","822390","528","New experiment","NA","0","0","0","yes","1024"
"undefined","undefined","undefined","undefined","black","no","legacy","0","uniform","undefined","undefined","undefined","95","95","191","95","95","NA","95","95","0","0","0","95","95","0","95","0","NA","95","0","Fri 26 Jul 2019 12:52:33 PM PDT","500","1000","The main experiment item","yes","NA","ABX_v3.osexp","/home/ubuntu/Desktop/panara","no","no","mono","no","18","no","white","no","yes","768","41","53","/home/ubuntu/Desktop/panara/subject-117.csv","Jazzy James","3.1.3","4.1.1.wav","4.1.3.wav","2.1.3.wav","0","1","1","1","NA","693","41765","693","NA","124058","space","2","1024","2","48000","-16","experiment","4.1.1.wav","2.1.3.wav","4.1.3.wav","117","odd","829385","831852","831352","830630","521478","NA","828385","832598","526","NA","NA","828383","833291","592574","828383","124586","NA","828385","528","New experiment","NA","0","0","0","yes","1024"
"undefined","undefined","undefined","undefined","black","no","legacy","0","uniform","undefined","undefined","undefined","96","96","193","96","96","NA","96","96","0","0","0","96","96","0","96","0","NA","96","0","Fri 26 Jul 2019 12:52:33 PM PDT","500","1000","The main experiment item","yes","NA","ABX_v3.osexp","/home/ubuntu/Desktop/panara","yes","no","mono","no","18","no","white","no","yes","768","42","53","/home/ubuntu/Desktop/panara/subject-117.csv","Jazzy James","3.1.3","2.2.5.wav","2.1.5.wav","2.1.3.wav","0","1","1","1","NA","2508","41765","2508","NA","124058","space","2","1024","2","48000","-16","experiment","2.1.3.wav","2.2.5.wav","2.1.5.wav","117","odd","834481","836971","836471","835729","521478","NA","833480","837726","526","NA","NA","833478","840235","592574","833478","124586","NA","833481","528","New experiment","NA","0","0","0","yes","1024"
"undefined","undefined","undefined","undefined","black","no","legacy","0","uniform","undefined","undefined","undefined","97","97","195","97","97","NA","97","97","0","0","0","97","97","0","97","0","NA","97","0","Fri 26 Jul 2019 12:52:33 PM PDT","500","1000","The main experiment item","yes","NA","ABX_v3.osexp","/home/ubuntu/Desktop/panara","yes","no","mono","no","18","no","white","no","yes","768","43","53","/home/ubuntu/Desktop/panara/subject-117.csv","Jazzy James","3.1.3","3.2.5.wav","3.2.3.wav","4.2.3.wav","0","1","1","1","NA","1731","41765","1731","NA","124058","space","2","1024","2","48000","-16","experiment","4.2.3.wav","3.2.5.wav","3.2.3.wav","117","odd","841414","843943","843443","842690","521478","NA","840413","844695","526","NA","NA","840411","846427","592574","840411","124586","NA","840414","528","New experiment","NA","0","0","0","yes","1024"
"undefined","undefined","undefined","undefined","black","no","legacy","0","uniform","undefined","undefined","undefined","98","98","197","98","98","NA","98","98","0","0","0","98","98","0","98","0","NA","98","0","Fri 26 Jul 2019 12:52:33 PM PDT","500","1000","The main experiment item","yes","NA","ABX_v3.osexp","/home/ubuntu/Desktop/panara","yes","no","mono","no","18","no","white","no","yes","768","44","53","/home/ubuntu/Desktop/panara/subject-117.csv","Jazzy James","3.1.3","3.2.4.wav","4.2.4.wav","4.2.2.wav","0","0","1","0","NA","854","41765","854","NA","124058","space","2","1024","2","48000","-16","experiment","4.2.2.wav","3.2.4.wav","4.2.4.wav","117","odd","847594","850099","849599","848854","521478","NA","846593","850844","526","NA","NA","846591","851699","592574","846591","124586","NA","846594","528","New experiment","NA","0","0","0","yes","1024"
"undefined","undefined","undefined","undefined","black","no","legacy","0","uniform","undefined","undefined","undefined","99","99","199","99","99","NA","99","99","0","0","0","99","99","0","99","0","NA","99","0","Fri 26 Jul 2019 12:52:33 PM PDT","500","1000","The main experiment item","yes","NA","ABX_v3.osexp","/home/ubuntu/Desktop/panara","yes","no","mono","no","18","no","white","no","yes","768","45","53","/home/ubuntu/Desktop/panara/subject-117.csv","Jazzy James","3.1.3","1.1.5.wav","1.1.3.wav","3.1.3.wav","0","1","1","1","NA","1024","41765","1024","NA","124058","space","2","1024","2","48000","-16","experiment","3.1.3.wav","1.1.5.wav","1.1.3.wav","117","odd","852877","855503","855003","854179","521478","NA","851876","856250","526","NA","NA","851874","857274","592574","851874","124586","NA","851877","528","New experiment","NA","0","0","0","yes","1024"
"undefined","undefined","undefined","undefined","black","no","legacy","0","uniform","undefined","undefined","undefined","100","100","201","100","100","NA","100","100","0","0","0","100","100","0","100","0","NA","100","0","Fri 26 Jul 2019 12:52:33 PM PDT","500","1000","The main experiment item","yes","NA","ABX_v3.osexp","/home/ubuntu/Desktop/panara","no","no","mono","no","18","no","white","no","yes","768","46","53","/home/ubuntu/Desktop/panara/subject-117.csv","Jazzy James","3.1.3","2.1.1.wav","2.1.3.wav","4.1.3.wav","0","1","space","1","NA","1662","60769","1662","NA","124058","space","2","1024","2","48000","-16","experiment","2.1.1.wav","4.1.3.wav","2.1.3.wav","117","odd","919234","921739","921239","920473","857461","NA","918234","922464","526","NA","NA","857458","924127","592574","857458","124586","NA","918234","528","New experiment","NA","0","0","0","yes","1024"
"undefined","undefined","undefined","undefined","black","no","legacy","0","uniform","undefined","undefined","undefined","101","101","203","101","101","NA","101","101","0","0","0","101","101","0","101","0","NA","101","0","Fri 26 Jul 2019 12:52:33 PM PDT","500","1000","The main experiment item","yes","NA","ABX_v3.osexp","/home/ubuntu/Desktop/panara","no","no","mono","no","18","no","white","no","yes","768","47","53","/home/ubuntu/Desktop/panara/subject-117.csv","Jazzy James","3.1.3","2.1.3.wav","2.1.5.wav","1.1.5.wav","0","0","space","0","NA","1661","60769","1661","NA","124058","space","2","1024","2","48000","-16","experiment","2.1.3.wav","1.1.5.wav","2.1.5.wav","117","odd","925309","927826","927326","926575","857461","NA","924309","928601","526","NA","NA","924306","930263","592574","924306","124586","NA","924309","528","New experiment","NA","0","0","0","yes","1024"
"undefined","undefined","undefined","undefined","black","no","legacy","0","uniform","undefined","undefined","undefined","102","102","205","102","102","NA","102","102","0","0","0","102","102","0","102","0","NA","102","0","Fri 26 Jul 2019 12:52:33 PM PDT","500","1000","The main experiment item","yes","NA","ABX_v3.osexp","/home/ubuntu/Desktop/panara","no","no","mono","no","18","no","white","no","yes","768","48","53","/home/ubuntu/Desktop/panara/subject-117.csv","Jazzy James","3.1.3","4.2.3.wav","2.2.3.wav","2.2.5.wav","0","0","space","0","NA","2213","60769","2213","NA","124058","space","2","1024","2","48000","-16","experiment","4.2.3.wav","2.2.5.wav","2.2.3.wav","117","odd","931457","933927","933427","932711","857461","NA","930457","934681","526","NA","NA","930455","936895","592574","930455","124586","NA","930457","528","New experiment","NA","0","0","0","yes","1024"
"undefined","undefined","undefined","undefined","black","no","legacy","0","uniform","undefined","undefined","undefined","103","103","207","103","103","NA","103","103","0","0","0","103","103","0","103","0","NA","103","0","Fri 26 Jul 2019 12:52:33 PM PDT","500","1000","The main experiment item","yes","NA","ABX_v3.osexp","/home/ubuntu/Desktop/panara","yes","no","mono","no","18","no","white","no","yes","768","49","53","/home/ubuntu/Desktop/panara/subject-117.csv","Jazzy James","3.1.3","2.1.5.wav","2.2.5.wav","2.2.3.wav","0","0","space","0","NA","1928","60769","1928","NA","124058","space","2","1024","2","48000","-16","experiment","2.2.3.wav","2.1.5.wav","2.2.5.wav","117","odd","938062","940561","940061","939339","857461","NA","937061","941317","526","NA","NA","937058","943246","592574","937058","124586","NA","937062","528","New experiment","NA","0","0","0","yes","1024"
"undefined","undefined","undefined","undefined","black","no","legacy","0","uniform","undefined","undefined","undefined","104","104","209","104","104","NA","104","104","0","0","0","104","104","0","104","0","NA","104","0","Fri 26 Jul 2019 12:52:33 PM PDT","500","1000","The main experiment item","yes","NA","ABX_v3.osexp","/home/ubuntu/Desktop/panara","no","no","mono","no","18","no","white","no","yes","768","50","53","/home/ubuntu/Desktop/panara/subject-117.csv","Jazzy James","3.1.3","3.1.3.wav","3.1.5.wav","4.1.5.wav","0","1","space","1","NA","1222","60769","1222","NA","124058","space","2","1024","2","48000","-16","experiment","3.1.3.wav","4.1.5.wav","3.1.5.wav","117","odd","944423","946957","946457","945677","857461","NA","943423","947679","526","NA","NA","943421","948902","592574","943420","124586","NA","943423","528","New experiment","NA","0","0","0","yes","1024"
"undefined","undefined","undefined","undefined","black","no","legacy","0","uniform","undefined","undefined","undefined","105","105","211","105","105","NA","105","105","0","0","0","105","105","0","105","0","NA","105","0","Fri 26 Jul 2019 12:52:33 PM PDT","500","1000","The main experiment item","yes","NA","ABX_v3.osexp","/home/ubuntu/Desktop/panara","no","no","mono","no","18","no","white","no","yes","768","51","53","/home/ubuntu/Desktop/panara/subject-117.csv","Jazzy James","3.1.3","3.1.2.wav","4.1.2.wav","4.1.4.wav","0","1","space","1","NA","1725","60769","1725","NA","124058","space","2","1024","2","48000","-16","experiment","3.1.2.wav","4.1.4.wav","4.1.2.wav","117","odd","950073","952586","952086","951363","857461","NA","949073","953311","526","NA","NA","949070","955036","592574","949070","124586","NA","949073","528","New experiment","NA","0","0","0","yes","1024"
"undefined","undefined","undefined","undefined","black","no","legacy","0","uniform","undefined","undefined","undefined","106","106","213","106","106","NA","106","106","0","0","0","106","106","0","106","0","NA","106","0","Fri 26 Jul 2019 12:52:33 PM PDT","500","1000","The main experiment item","yes","NA","ABX_v3.osexp","/home/ubuntu/Desktop/panara","no","no","mono","no","18","no","white","no","yes","768","52","53","/home/ubuntu/Desktop/panara/subject-117.csv","Jazzy James","3.1.3","4.1.2.wav","4.1.4.wav","2.1.4.wav","0","1","space","1","NA","664","60769","664","NA","124058","space","2","1024","2","48000","-16","experiment","4.1.2.wav","2.1.4.wav","4.1.4.wav","117","odd","956209","958673","958173","957449","857461","NA","955208","959420","526","NA","NA","955205","960085","592574","955205","124586","NA","955209","528","New experiment","NA","0","0","0","yes","1024"
"undefined","undefined","undefined","undefined","black","no","legacy","0","uniform","undefined","undefined","undefined","107","107","215","107","107","NA","107","107","0","0","0","107","107","0","107","0","NA","107","0","Fri 26 Jul 2019 12:52:33 PM PDT","500","1000","The main experiment item","yes","NA","ABX_v3.osexp","/home/ubuntu/Desktop/panara","yes","no","mono","no","18","no","white","no","yes","768","53","53","/home/ubuntu/Desktop/panara/subject-117.csv","Jazzy James","3.1.3","3.1.5.wav","3.1.3.wav","4.1.3.wav","0","1","space","1","NA","3422","60769","3422","NA","124058","space","2","1024","2","48000","-16","experiment","4.1.3.wav","3.1.5.wav","3.1.3.wav","117","odd","961209","963728","963228","962477","857461","NA","960209","964446","526","NA","NA","960206","967869","592574","960206","124586","NA","960209","528","New experiment","NA","0","0","0","yes","1024"
"undefined","undefined","undefined","undefined","black","no","legacy","0","uniform","undefined","undefined","undefined","108","108","217","108","108","NA","108","108","0","0","0","108","108","0","108","0","NA","108","0","Fri 26 Jul 2019 12:52:33 PM PDT","500","1000","The main experiment item","yes","NA","ABX_v3.osexp","/home/ubuntu/Desktop/panara","no","no","mono","no","18","no","white","no","yes","768","54","53","/home/ubuntu/Desktop/panara/subject-117.csv","Jazzy James","3.1.3","1.1.3.wav","2.1.3.wav","2.1.5.wav","0","1","space","1","NA","941","60769","941","NA","124058","space","2","1024","2","48000","-16","experiment","1.1.3.wav","2.1.5.wav","2.1.3.wav","117","odd","969025","971586","971086","970336","857461","NA","968025","972335","526","NA","NA","968022","973277","592574","968022","124586","NA","968025","528","New experiment","NA","0","0","0","yes","1024"
"undefined","undefined","undefined","undefined","black","no","legacy","0","uniform","undefined","undefined","undefined","109","109","219","109","109","NA","109","109","0","0","0","109","109","0","109","0","NA","109","0","Fri 26 Jul 2019 12:52:33 PM PDT","500","1000","The main experiment item","yes","NA","ABX_v3.osexp","/home/ubuntu/Desktop/panara","yes","no","mono","no","18","no","white","no","yes","768","55","53","/home/ubuntu/Desktop/panara/subject-117.csv","Jazzy James","3.1.3","1.1.5.wav","1.2.5.wav","1.2.3.wav","0","1","space","1","NA","2726","60769","2726","NA","124058","space","2","1024","2","48000","-16","experiment","1.2.3.wav","1.1.5.wav","1.2.5.wav","117","odd","974448","977309","976809","975724","857461","NA","973448","978101","526","NA","NA","973446","980828","592574","973446","124586","NA","973448","528","New experiment","NA","0","0","0","yes","1024"
"undefined","undefined","undefined","undefined","black","no","legacy","0","uniform","undefined","undefined","undefined","110","110","221","110","110","NA","110","110","0","0","0","110","110","0","110","0","NA","110","0","Fri 26 Jul 2019 12:52:33 PM PDT","500","1000","The main experiment item","yes","NA","ABX_v3.osexp","/home/ubuntu/Desktop/panara","yes","no","mono","no","18","no","white","no","yes","768","56","53","/home/ubuntu/Desktop/panara/subject-117.csv","Jazzy James","3.1.3","4.2.4.wav","4.2.2.wav","4.1.2.wav","0","1","space","1","NA","1431","60769","1431","NA","124058","space","2","1024","2","48000","-16","experiment","4.1.2.wav","4.2.4.wav","4.2.2.wav","117","odd","981988","984418","983918","983206","857461","NA","980988","985132","526","NA","NA","980986","986564","592574","980986","124586","NA","980988","528","New experiment","NA","0","0","0","yes","1024"
"undefined","undefined","undefined","undefined","black","no","legacy","0","uniform","undefined","undefined","undefined","111","111","223","111","111","NA","111","111","0","0","0","111","111","0","111","0","NA","111","0","Fri 26 Jul 2019 12:52:33 PM PDT","500","1000","The main experiment item","yes","NA","ABX_v3.osexp","/home/ubuntu/Desktop/panara","no","no","mono","no","18","no","white","no","yes","768","57","53","/home/ubuntu/Desktop/panara/subject-117.csv","Jazzy James","3.1.3","4.2.3.wav","4.1.3.wav","4.1.5.wav","0","1","space","1","NA","773","60769","773","NA","124058","space","2","1024","2","48000","-16","experiment","4.2.3.wav","4.1.5.wav","4.1.3.wav","117","odd","987725","990190","989690","988979","857461","NA","986725","990918","526","NA","NA","986723","991692","592574","986723","124586","NA","986725","528","New experiment","NA","0","0","0","yes","1024"
"undefined","undefined","undefined","undefined","black","no","legacy","0","uniform","undefined","undefined","undefined","112","112","225","112","112","NA","112","112","0","0","0","112","112","0","112","0","NA","112","0","Fri 26 Jul 2019 12:52:33 PM PDT","500","1000","The main experiment item","yes","NA","ABX_v3.osexp","/home/ubuntu/Desktop/panara","yes","no","mono","no","18","no","white","no","yes","768","58","53","/home/ubuntu/Desktop/panara/subject-117.csv","Jazzy James","3.1.3","4.1.4.wav","3.1.4.wav","3.1.2.wav","0","0","space","0","NA","917","60769","917","NA","124058","space","2","1024","2","48000","-16","experiment","3.1.2.wav","4.1.4.wav","3.1.4.wav","117","odd","992883","995379","994879","994095","857461","NA","991883","996166","526","NA","NA","991880","997083","592574","991880","124586","NA","991883","528","New experiment","NA","0","0","0","yes","1024"
"undefined","undefined","undefined","undefined","black","no","legacy","0","uniform","undefined","undefined","undefined","113","113","227","113","113","NA","113","113","0","0","0","113","113","0","113","0","NA","113","0","Fri 26 Jul 2019 12:52:33 PM PDT","500","1000","The main experiment item","yes","NA","ABX_v3.osexp","/home/ubuntu/Desktop/panara","no","no","mono","no","18","no","white","no","yes","768","59","53","/home/ubuntu/Desktop/panara/subject-117.csv","Jazzy James","3.1.3","1.1.3.wav","1.1.5.wav","2.1.5.wav","0","1","space","1","NA","947","60769","947","NA","124058","space","2","1024","2","48000","-16","experiment","1.1.3.wav","2.1.5.wav","1.1.5.wav","117","odd","998246","1000818","1000318","999533","857461","NA","997246","1001567","526","NA","NA","997244","1002515","592574","997243","124586","NA","997246","528","New experiment","NA","0","0","0","yes","1024"
