"acc","accuracy","average_response_time","avg_rt","background","bidi","canvas_backend","compensation","coordinates","correct","correct_display_selecting","correct_welcome","count_A","count_B","count_ISI","count_X","count_break","count_determine_break","count_display_listening","count_display_selecting","count_experiment","count_finished","count_getting_started","count_new_inline_script","count_new_logger","count_new_loop","count_new_sequence","count_plain_block","count_setup_breaks","count_wait_nextitem","count_welcome","datetime","delay_ISI","delay_wait_nextitem","description","disable_garbage_collection","empty_column","experiment_file","experiment_path","flip_order","font_bold","font_family","font_italic","font_size","font_underline","foreground","form_clicks","fullscreen","height","live_row","live_row_plain_block","logfile","opensesame_codename","opensesame_version","play1","play2","play3","repeat_cycle","response","response_break","response_display_selecting","response_finished","response_time","response_time_break","response_time_display_selecting","response_time_finished","response_time_welcome","response_welcome","round_decimals","sound_buf_size","sound_channels","sound_freq","sound_sample_size","start","stimA","stimB","stimX","subject_nr","subject_parity","time_A","time_B","time_ISI","time_X","time_break","time_determine_break","time_display_listening","time_display_selecting","time_experiment","time_finished","time_getting_started","time_new_inline_script","time_new_logger","time_new_loop","time_new_sequence","time_plain_block","time_setup_breaks","time_wait_nextitem","time_welcome","title","to_break","total_correct","total_response_time","total_responses","uniform_coordinates","width"
"undefined","undefined","undefined","undefined","black","no","legacy","0","uniform","undefined","undefined","undefined","0","0","1","0","0","NA","0","0","0","0","0","0","0","0","0","0","NA","0","0","Mon 10 Jun 2019 11:41:15 AM PDT","500","1000","The main experiment item","yes","NA","ABX_v3.osexp","/home/ubuntu/Desktop/panara","yes","no","mono","no","18","no","white","no","yes","768","0","0","/home/ubuntu/Desktop/panara/subject-104.csv","Jazzy James","3.1.3","1.1.3.wav","1.1.1.wav","1.1.1.wav","0","1","NA","1","NA","6675","NA","6675","NA","8503894","space","2","1024","2","48000","-16","experiment","1.1.1.wav","1.1.3.wav","1.1.1.wav","104","even","8505928","8508512","8508012","8507231","NA","NA","8504928","8509295","962","NA","NA","8504925","8515970","NA","8504925","8504859","NA","8504928","965","New experiment","NA","0","0","0","yes","1024"
"undefined","undefined","undefined","undefined","black","no","legacy","0","uniform","undefined","undefined","undefined","1","1","3","1","1","NA","1","1","0","0","0","1","1","0","1","0","NA","1","0","Mon 10 Jun 2019 11:41:15 AM PDT","500","1000","The main experiment item","yes","NA","ABX_v3.osexp","/home/ubuntu/Desktop/panara","yes","no","mono","no","18","no","white","no","yes","768","1","1","/home/ubuntu/Desktop/panara/subject-104.csv","Jazzy James","3.1.3","1.1.3.wav","1.1.3.wav","1.1.1.wav","0","1","NA","1","NA","1876","NA","1876","NA","8503894","space","2","1024","2","48000","-16","experiment","1.1.1.wav","1.1.3.wav","1.1.3.wav","104","even","8517214","8519776","8519276","8518497","NA","NA","8516214","8520557","962","NA","NA","8516212","8522433","NA","8516211","8504859","NA","8516214","965","New experiment","NA","0","0","0","yes","1024"
"undefined","undefined","undefined","undefined","black","no","legacy","0","uniform","undefined","undefined","undefined","2","2","5","2","2","NA","2","2","0","0","0","2","2","0","2","0","NA","2","0","Mon 10 Jun 2019 11:41:15 AM PDT","500","1000","The main experiment item","yes","NA","ABX_v3.osexp","/home/ubuntu/Desktop/panara","no","no","mono","no","18","no","white","no","yes","768","2","2","/home/ubuntu/Desktop/panara/subject-104.csv","Jazzy James","3.1.3","4.2.1.wav","4.2.1.wav","4.2.3.wav","0","0","NA","0","NA","939","NA","939","NA","8503894","space","2","1024","2","48000","-16","experiment","4.2.1.wav","4.2.3.wav","4.2.1.wav","104","even","8523611","8526090","8525590","8524852","NA","NA","8522610","8526845","962","NA","NA","8522607","8527785","NA","8522607","8504859","NA","8522611","965","New experiment","NA","0","0","0","yes","1024"
"undefined","undefined","undefined","undefined","black","no","legacy","0","uniform","undefined","undefined","undefined","3","3","7","3","3","NA","3","3","0","0","0","3","3","0","3","0","NA","3","0","Mon 10 Jun 2019 11:41:15 AM PDT","500","1000","The main experiment item","yes","NA","ABX_v3.osexp","/home/ubuntu/Desktop/panara","no","no","mono","no","18","no","white","no","yes","768","3","3","/home/ubuntu/Desktop/panara/subject-104.csv","Jazzy James","3.1.3","4.1.2.wav","4.1.2.wav","4.1.4.wav","0","1","NA","1","NA","1214","NA","1214","NA","8503894","space","2","1024","2","48000","-16","experiment","4.1.2.wav","4.1.4.wav","4.1.2.wav","104","even","8529047","8531550","8531050","8530293","NA","NA","8528047","8532290","962","NA","NA","8528044","8533504","NA","8528044","8504859","NA","8528047","965","New experiment","NA","0","0","0","yes","1024"
"undefined","undefined","undefined","undefined","black","no","legacy","0","uniform","undefined","undefined","undefined","4","4","9","4","4","NA","4","4","0","0","0","4","4","0","4","0","NA","4","0","Mon 10 Jun 2019 11:41:15 AM PDT","500","1000","The main experiment item","yes","NA","ABX_v3.osexp","/home/ubuntu/Desktop/panara","yes","no","mono","no","18","no","white","no","yes","768","4","4","/home/ubuntu/Desktop/panara/subject-104.csv","Jazzy James","3.1.3","2.1.4.wav","2.1.4.wav","2.1.2.wav","0","0","NA","0","NA","552","NA","552","NA","8503894","space","2","1024","2","48000","-16","experiment","2.1.2.wav","2.1.4.wav","2.1.4.wav","104","even","8534686","8537195","8536695","8535944","NA","NA","8533686","8537944","962","NA","NA","8533683","8538496","NA","8533683","8504859","NA","8533686","965","New experiment","NA","0","0","0","yes","1024"
"undefined","undefined","undefined","undefined","black","no","legacy","0","uniform","undefined","undefined","undefined","5","5","11","5","5","NA","5","5","0","0","0","5","5","0","5","0","NA","5","0","Mon 10 Jun 2019 11:41:15 AM PDT","500","1000","The main experiment item","yes","NA","ABX_v3.osexp","/home/ubuntu/Desktop/panara","yes","no","mono","no","18","no","white","no","yes","768","5","5","/home/ubuntu/Desktop/panara/subject-104.csv","Jazzy James","3.1.3","2.2.4.wav","2.2.4.wav","2.2.2.wav","0","0","NA","0","NA","565","NA","565","NA","8503894","space","2","1024","2","48000","-16","experiment","2.2.2.wav","2.2.4.wav","2.2.4.wav","104","even","8539689","8542158","8541658","8540936","NA","NA","8538689","8542914","962","NA","NA","8538686","8543480","NA","8538686","8504859","NA","8538689","965","New experiment","NA","0","0","0","yes","1024"
"undefined","undefined","undefined","undefined","black","no","legacy","0","uniform","undefined","undefined","undefined","6","6","13","6","6","NA","6","6","0","0","0","6","6","0","6","0","NA","6","0","Mon 10 Jun 2019 11:41:15 AM PDT","500","1000","The main experiment item","yes","NA","ABX_v3.osexp","/home/ubuntu/Desktop/panara","yes","no","mono","no","18","no","white","no","yes","768","6","6","/home/ubuntu/Desktop/panara/subject-104.csv","Jazzy James","3.1.3","3.1.4.wav","3.1.4.wav","3.1.2.wav","0","1","NA","1","NA","654","NA","654","NA","8503894","space","2","1024","2","48000","-16","experiment","3.1.2.wav","3.1.4.wav","3.1.4.wav","104","even","8544690","8547250","8546750","8545971","NA","NA","8543690","8548025","962","NA","NA","8543687","8548679","NA","8543687","8504859","NA","8543690","965","New experiment","NA","0","0","0","yes","1024"
"undefined","undefined","undefined","undefined","black","no","legacy","0","uniform","undefined","undefined","undefined","7","7","15","7","7","NA","7","7","0","0","0","7","7","0","7","0","NA","7","0","Mon 10 Jun 2019 11:41:15 AM PDT","500","1000","The main experiment item","yes","NA","ABX_v3.osexp","/home/ubuntu/Desktop/panara","yes","no","mono","no","18","no","white","no","yes","768","7","7","/home/ubuntu/Desktop/panara/subject-104.csv","Jazzy James","3.1.3","2.2.5.wav","2.2.3.wav","2.2.3.wav","0","0","NA","0","NA","526","NA","526","NA","8503894","space","2","1024","2","48000","-16","experiment","2.2.3.wav","2.2.5.wav","2.2.3.wav","104","even","8549893","8552334","8551834","8551112","NA","NA","8548892","8553089","962","NA","NA","8548889","8553615","NA","8548889","8504859","NA","8548893","965","New experiment","NA","0","0","0","yes","1024"
"undefined","undefined","undefined","undefined","black","no","legacy","0","uniform","undefined","undefined","undefined","8","8","17","8","8","NA","8","8","0","0","0","8","8","0","8","0","NA","8","0","Mon 10 Jun 2019 11:41:15 AM PDT","500","1000","The main experiment item","yes","NA","ABX_v3.osexp","/home/ubuntu/Desktop/panara","no","no","mono","no","18","no","white","no","yes","768","8","8","/home/ubuntu/Desktop/panara/subject-104.csv","Jazzy James","3.1.3","1.2.2.wav","1.2.4.wav","1.2.4.wav","0","1","NA","1","NA","1168","NA","1168","NA","8503894","space","2","1024","2","48000","-16","experiment","1.2.2.wav","1.2.4.wav","1.2.4.wav","104","even","8554841","8557363","8556863","8556109","NA","NA","8553841","8558102","962","NA","NA","8553838","8559271","NA","8553838","8504859","NA","8553841","965","New experiment","NA","0","0","0","yes","1024"
"undefined","undefined","undefined","undefined","black","no","legacy","0","uniform","undefined","undefined","undefined","9","9","19","9","9","NA","9","9","0","0","0","9","9","0","9","0","NA","9","0","Mon 10 Jun 2019 11:41:15 AM PDT","500","1000","The main experiment item","yes","NA","ABX_v3.osexp","/home/ubuntu/Desktop/panara","yes","no","mono","no","18","no","white","no","yes","768","9","9","/home/ubuntu/Desktop/panara/subject-104.csv","Jazzy James","3.1.3","3.2.5.wav","3.2.5.wav","3.2.3.wav","0","0","NA","0","NA","1016","NA","1016","NA","8503894","space","2","1024","2","48000","-16","experiment","3.2.3.wav","3.2.5.wav","3.2.5.wav","104","even","8560444","8562972","8562472","8561698","NA","NA","8559444","8563718","962","NA","NA","8559441","8564734","NA","8559441","8504859","NA","8559444","965","New experiment","NA","0","0","0","yes","1024"
"undefined","undefined","undefined","undefined","black","no","legacy","0","uniform","undefined","undefined","undefined","10","10","21","10","10","NA","10","10","0","0","0","10","10","0","10","0","NA","10","0","Mon 10 Jun 2019 11:41:15 AM PDT","500","1000","The main experiment item","yes","NA","ABX_v3.osexp","/home/ubuntu/Desktop/panara","yes","no","mono","no","18","no","white","no","yes","768","10","10","/home/ubuntu/Desktop/panara/subject-104.csv","Jazzy James","3.1.3","5.2.4.wav","5.2.2.wav","5.2.2.wav","0","0","NA","0","NA","781","NA","781","NA","8503894","space","2","1024","2","48000","-16","experiment","5.2.2.wav","5.2.4.wav","5.2.2.wav","104","even","8565928","8568370","8567870","8567174","NA","NA","8564928","8569066","962","NA","NA","8564925","8569847","NA","8564925","8504859","NA","8564928","965","New experiment","NA","0","0","0","yes","1024"
"undefined","undefined","undefined","undefined","black","no","legacy","0","uniform","undefined","undefined","undefined","11","11","23","11","11","NA","11","11","0","0","0","11","11","0","11","0","NA","11","0","Mon 10 Jun 2019 11:41:15 AM PDT","500","1000","The main experiment item","yes","NA","ABX_v3.osexp","/home/ubuntu/Desktop/panara","yes","no","mono","no","18","no","white","no","yes","768","11","11","/home/ubuntu/Desktop/panara/subject-104.csv","Jazzy James","3.1.3","3.2.3.wav","3.2.1.wav","3.2.1.wav","0","0","NA","0","NA","1667","NA","1667","NA","8503894","space","2","1024","2","48000","-16","experiment","3.2.1.wav","3.2.3.wav","3.2.1.wav","104","even","8570998","8573490","8572990","8572236","NA","NA","8569998","8574251","962","NA","NA","8569995","8575919","NA","8569995","8504859","NA","8569998","965","New experiment","NA","0","0","0","yes","1024"
"undefined","undefined","undefined","undefined","black","no","legacy","0","uniform","undefined","undefined","undefined","12","12","25","12","12","NA","12","12","0","0","0","12","12","0","12","0","NA","12","0","Mon 10 Jun 2019 11:41:15 AM PDT","500","1000","The main experiment item","yes","NA","ABX_v3.osexp","/home/ubuntu/Desktop/panara","no","no","mono","no","18","no","white","no","yes","768","12","12","/home/ubuntu/Desktop/panara/subject-104.csv","Jazzy James","3.1.3","3.2.1.wav","3.2.3.wav","3.2.3.wav","0","1","NA","1","NA","677","NA","677","NA","8503894","space","2","1024","2","48000","-16","experiment","3.2.1.wav","3.2.3.wav","3.2.3.wav","104","even","8577086","8579582","8579081","8578332","NA","NA","8576086","8580336","962","NA","NA","8576083","8581013","NA","8576083","8504859","NA","8576086","965","New experiment","NA","0","0","0","yes","1024"
"undefined","undefined","undefined","undefined","black","no","legacy","0","uniform","undefined","undefined","undefined","13","13","27","13","13","NA","13","13","0","0","0","13","13","0","13","0","NA","13","0","Mon 10 Jun 2019 11:41:15 AM PDT","500","1000","The main experiment item","yes","NA","ABX_v3.osexp","/home/ubuntu/Desktop/panara","no","no","mono","no","18","no","white","no","yes","768","13","13","/home/ubuntu/Desktop/panara/subject-104.csv","Jazzy James","3.1.3","4.1.1.wav","4.1.1.wav","4.1.3.wav","0","1","NA","1","NA","636","NA","636","NA","8503894","space","2","1024","2","48000","-16","experiment","4.1.1.wav","4.1.3.wav","4.1.1.wav","104","even","8582220","8584694","8584194","8583475","NA","NA","8581220","8585448","962","NA","NA","8581218","8586085","NA","8581218","8504859","NA","8581220","965","New experiment","NA","0","0","0","yes","1024"
"undefined","undefined","undefined","undefined","black","no","legacy","0","uniform","undefined","undefined","undefined","14","14","29","14","14","NA","14","14","0","0","0","14","14","0","14","0","NA","14","0","Mon 10 Jun 2019 11:41:15 AM PDT","500","1000","The main experiment item","yes","NA","ABX_v3.osexp","/home/ubuntu/Desktop/panara","yes","no","mono","no","18","no","white","no","yes","768","14","14","/home/ubuntu/Desktop/panara/subject-104.csv","Jazzy James","3.1.3","3.1.3.wav","3.1.3.wav","3.1.1.wav","0","0","NA","0","NA","1103","NA","1103","NA","8503894","space","2","1024","2","48000","-16","experiment","3.1.1.wav","3.1.3.wav","3.1.3.wav","104","even","8587269","8589787","8589287","8588533","NA","NA","8586269","8590541","962","NA","NA","8586266","8591645","NA","8586266","8504859","NA","8586269","965","New experiment","NA","0","0","0","yes","1024"
"undefined","undefined","undefined","undefined","black","no","legacy","0","uniform","undefined","undefined","undefined","15","15","31","15","15","NA","15","15","0","0","0","15","15","0","15","0","NA","15","0","Mon 10 Jun 2019 11:41:15 AM PDT","500","1000","The main experiment item","yes","NA","ABX_v3.osexp","/home/ubuntu/Desktop/panara","yes","no","mono","no","18","no","white","no","yes","768","15","15","/home/ubuntu/Desktop/panara/subject-104.csv","Jazzy James","3.1.3","1.1.5.wav","1.1.3.wav","1.1.3.wav","0","0","NA","0","NA","661","NA","661","NA","8503894","space","2","1024","2","48000","-16","experiment","1.1.3.wav","1.1.5.wav","1.1.3.wav","104","even","8592811","8595390","8594890","8594080","NA","NA","8591811","8596200","962","NA","NA","8591808","8596861","NA","8591808","8504859","NA","8591811","965","New experiment","NA","0","0","0","yes","1024"
"undefined","undefined","undefined","undefined","black","no","legacy","0","uniform","undefined","undefined","undefined","16","16","33","16","16","NA","16","16","0","0","0","16","16","0","16","0","NA","16","0","Mon 10 Jun 2019 11:41:15 AM PDT","500","1000","The main experiment item","yes","NA","ABX_v3.osexp","/home/ubuntu/Desktop/panara","yes","no","mono","no","18","no","white","no","yes","768","16","16","/home/ubuntu/Desktop/panara/subject-104.csv","Jazzy James","3.1.3","2.1.5.wav","2.1.3.wav","2.1.3.wav","0","0","NA","0","NA","673","NA","673","NA","8503894","space","2","1024","2","48000","-16","experiment","2.1.3.wav","2.1.5.wav","2.1.3.wav","104","even","8598036","8600538","8600038","8599285","NA","NA","8597035","8601291","962","NA","NA","8597033","8601965","NA","8597033","8504859","NA","8597035","965","New experiment","NA","0","0","0","yes","1024"
"undefined","undefined","undefined","undefined","black","no","legacy","0","uniform","undefined","undefined","undefined","17","17","35","17","17","NA","17","17","0","0","0","17","17","0","17","0","NA","17","0","Mon 10 Jun 2019 11:41:15 AM PDT","500","1000","The main experiment item","yes","NA","ABX_v3.osexp","/home/ubuntu/Desktop/panara","yes","no","mono","no","18","no","white","no","yes","768","17","17","/home/ubuntu/Desktop/panara/subject-104.csv","Jazzy James","3.1.3","1.2.4.wav","1.2.2.wav","1.2.2.wav","0","1","NA","1","NA","1726","NA","1726","NA","8503894","space","2","1024","2","48000","-16","experiment","1.2.2.wav","1.2.4.wav","1.2.2.wav","104","even","8603143","8605685","8605185","8604406","NA","NA","8602142","8606461","962","NA","NA","8602140","8608187","NA","8602140","8504859","NA","8602143","965","New experiment","NA","0","0","0","yes","1024"
"undefined","undefined","undefined","undefined","black","no","legacy","0","uniform","undefined","undefined","undefined","18","18","37","18","18","NA","18","18","0","0","0","18","18","0","18","0","NA","18","0","Mon 10 Jun 2019 11:41:15 AM PDT","500","1000","The main experiment item","yes","NA","ABX_v3.osexp","/home/ubuntu/Desktop/panara","no","no","mono","no","18","no","white","no","yes","768","18","18","/home/ubuntu/Desktop/panara/subject-104.csv","Jazzy James","3.1.3","3.1.1.wav","3.1.1.wav","3.1.3.wav","0","0","NA","0","NA","792","NA","792","NA","8503894","space","2","1024","2","48000","-16","experiment","3.1.1.wav","3.1.3.wav","3.1.1.wav","104","even","8609346","8611858","8611358","8610606","NA","NA","8608345","8612611","962","NA","NA","8608342","8613403","NA","8608342","8504859","NA","8608346","965","New experiment","NA","0","0","0","yes","1024"
"undefined","undefined","undefined","undefined","black","no","legacy","0","uniform","undefined","undefined","undefined","19","19","39","19","19","NA","19","19","0","0","0","19","19","0","19","0","NA","19","0","Mon 10 Jun 2019 11:41:15 AM PDT","500","1000","The main experiment item","yes","NA","ABX_v3.osexp","/home/ubuntu/Desktop/panara","no","no","mono","no","18","no","white","no","yes","768","19","19","/home/ubuntu/Desktop/panara/subject-104.csv","Jazzy James","3.1.3","5.2.3.wav","5.2.5.wav","5.2.5.wav","0","0","NA","0","NA","1936","NA","1936","NA","8503894","space","2","1024","2","48000","-16","experiment","5.2.3.wav","5.2.5.wav","5.2.5.wav","104","even","8614584","8617027","8616527","8615817","NA","NA","8613583","8617746","962","NA","NA","8613581","8619683","NA","8613581","8504859","NA","8613583","965","New experiment","NA","0","0","0","yes","1024"
"undefined","undefined","undefined","undefined","black","no","legacy","0","uniform","undefined","undefined","undefined","20","20","41","20","20","NA","20","20","0","0","0","20","20","0","20","0","NA","20","0","Mon 10 Jun 2019 11:41:15 AM PDT","500","1000","The main experiment item","yes","NA","ABX_v3.osexp","/home/ubuntu/Desktop/panara","yes","no","mono","no","18","no","white","no","yes","768","20","20","/home/ubuntu/Desktop/panara/subject-104.csv","Jazzy James","3.1.3","2.1.5.wav","2.1.5.wav","2.1.3.wav","0","1","NA","1","NA","2136","NA","2136","NA","8503894","space","2","1024","2","48000","-16","experiment","2.1.3.wav","2.1.5.wav","2.1.5.wav","104","even","8620815","8623306","8622806","8622054","NA","NA","8619815","8624066","962","NA","NA","8619812","8626202","NA","8619812","8504859","NA","8619815","965","New experiment","NA","0","0","0","yes","1024"
"undefined","undefined","undefined","undefined","black","no","legacy","0","uniform","undefined","undefined","undefined","21","21","43","21","21","NA","21","21","0","0","0","21","21","0","21","0","NA","21","0","Mon 10 Jun 2019 11:41:15 AM PDT","500","1000","The main experiment item","yes","NA","ABX_v3.osexp","/home/ubuntu/Desktop/panara","yes","no","mono","no","18","no","white","no","yes","768","21","21","/home/ubuntu/Desktop/panara/subject-104.csv","Jazzy James","3.1.3","3.2.5.wav","3.2.3.wav","3.2.3.wav","0","0","NA","0","NA","815","NA","815","NA","8503894","space","2","1024","2","48000","-16","experiment","3.2.3.wav","3.2.5.wav","3.2.3.wav","104","even","8627361","8629904","8629404","8628654","NA","NA","8626361","8630658","962","NA","NA","8626358","8631474","NA","8626358","8504859","NA","8626361","965","New experiment","NA","0","0","0","yes","1024"
"undefined","undefined","undefined","undefined","black","no","legacy","0","uniform","undefined","undefined","undefined","22","22","45","22","22","NA","22","22","0","0","0","22","22","0","22","0","NA","22","0","Mon 10 Jun 2019 11:41:15 AM PDT","500","1000","The main experiment item","yes","NA","ABX_v3.osexp","/home/ubuntu/Desktop/panara","no","no","mono","no","18","no","white","no","yes","768","22","22","/home/ubuntu/Desktop/panara/subject-104.csv","Jazzy James","3.1.3","1.2.1.wav","1.2.3.wav","1.2.3.wav","0","0","NA","0","NA","1082","NA","1082","NA","8503894","space","2","1024","2","48000","-16","experiment","1.2.1.wav","1.2.3.wav","1.2.3.wav","104","even","8632668","8635216","8634716","8633936","NA","NA","8631668","8635999","962","NA","NA","8631665","8637082","NA","8631665","8504859","NA","8631668","965","New experiment","NA","0","0","0","yes","1024"
"undefined","undefined","undefined","undefined","black","no","legacy","0","uniform","undefined","undefined","undefined","23","23","47","23","23","NA","23","23","0","0","0","23","23","0","23","0","NA","23","0","Mon 10 Jun 2019 11:41:15 AM PDT","500","1000","The main experiment item","yes","NA","ABX_v3.osexp","/home/ubuntu/Desktop/panara","no","no","mono","no","18","no","white","no","yes","768","23","23","/home/ubuntu/Desktop/panara/subject-104.csv","Jazzy James","3.1.3","4.1.2.wav","4.1.4.wav","4.1.4.wav","0","1","NA","1","NA","686","NA","686","NA","8503894","space","2","1024","2","48000","-16","experiment","4.1.2.wav","4.1.4.wav","4.1.4.wav","104","even","8638258","8640728","8640228","8639476","NA","NA","8637258","8641451","962","NA","NA","8637255","8642137","NA","8637255","8504859","NA","8637258","965","New experiment","NA","0","0","0","yes","1024"
"undefined","undefined","undefined","undefined","black","no","legacy","0","uniform","undefined","undefined","undefined","24","24","49","24","24","NA","24","24","0","0","0","24","24","0","24","0","NA","24","0","Mon 10 Jun 2019 11:41:15 AM PDT","500","1000","The main experiment item","yes","NA","ABX_v3.osexp","/home/ubuntu/Desktop/panara","yes","no","mono","no","18","no","white","no","yes","768","24","24","/home/ubuntu/Desktop/panara/subject-104.csv","Jazzy James","3.1.3","3.1.5.wav","3.1.3.wav","3.1.3.wav","0","1","NA","1","NA","940","NA","940","NA","8503894","space","2","1024","2","48000","-16","experiment","3.1.3.wav","3.1.5.wav","3.1.3.wav","104","even","8643315","8645825","8645325","8644588","NA","NA","8642315","8646564","962","NA","NA","8642312","8647505","NA","8642312","8504859","NA","8642315","965","New experiment","NA","0","0","0","yes","1024"
"undefined","undefined","undefined","undefined","black","no","legacy","0","uniform","undefined","undefined","undefined","25","25","51","25","25","NA","25","25","0","0","0","25","25","0","25","0","NA","25","0","Mon 10 Jun 2019 11:41:15 AM PDT","500","1000","The main experiment item","yes","NA","ABX_v3.osexp","/home/ubuntu/Desktop/panara","yes","no","mono","no","18","no","white","no","yes","768","25","25","/home/ubuntu/Desktop/panara/subject-104.csv","Jazzy James","3.1.3","2.2.4.wav","2.2.2.wav","2.2.2.wav","0","0","NA","0","NA","1140","NA","1140","NA","8503894","space","2","1024","2","48000","-16","experiment","2.2.2.wav","2.2.4.wav","2.2.2.wav","104","even","8648671","8651152","8650652","8649930","NA","NA","8647670","8651908","962","NA","NA","8647668","8653049","NA","8647667","8504859","NA","8647671","965","New experiment","NA","0","0","0","yes","1024"
"undefined","undefined","undefined","undefined","black","no","legacy","0","uniform","undefined","undefined","undefined","26","26","53","26","26","NA","26","26","0","0","0","26","26","0","26","0","NA","26","0","Mon 10 Jun 2019 11:41:15 AM PDT","500","1000","The main experiment item","yes","NA","ABX_v3.osexp","/home/ubuntu/Desktop/panara","yes","no","mono","no","18","no","white","no","yes","768","26","26","/home/ubuntu/Desktop/panara/subject-104.csv","Jazzy James","3.1.3","4.2.4.wav","4.2.4.wav","4.2.2.wav","0","1","NA","1","NA","1387","NA","1387","NA","8503894","space","2","1024","2","48000","-16","experiment","4.2.2.wav","4.2.4.wav","4.2.4.wav","104","even","8654248","8656698","8656198","8655477","NA","NA","8653248","8657454","962","NA","NA","8653245","8658841","NA","8653245","8504859","NA","8653248","965","New experiment","NA","0","0","0","yes","1024"
"undefined","undefined","undefined","undefined","black","no","legacy","0","uniform","undefined","undefined","undefined","27","27","55","27","27","NA","27","27","0","0","0","27","27","0","27","0","NA","27","0","Mon 10 Jun 2019 11:41:15 AM PDT","500","1000","The main experiment item","yes","NA","ABX_v3.osexp","/home/ubuntu/Desktop/panara","no","no","mono","no","18","no","white","no","yes","768","27","27","/home/ubuntu/Desktop/panara/subject-104.csv","Jazzy James","3.1.3","3.1.2.wav","3.1.2.wav","3.1.4.wav","0","1","NA","1","NA","1746","NA","1746","NA","8503894","space","2","1024","2","48000","-16","experiment","3.1.2.wav","3.1.4.wav","3.1.2.wav","104","even","8659983","8662544","8662044","8661263","NA","NA","8658983","8663325","962","NA","NA","8658981","8665072","NA","8658980","8504859","NA","8658983","965","New experiment","NA","0","0","0","yes","1024"
"undefined","undefined","undefined","undefined","black","no","legacy","0","uniform","undefined","undefined","undefined","28","28","57","28","28","NA","28","28","0","0","0","28","28","0","28","0","NA","28","0","Mon 10 Jun 2019 11:41:15 AM PDT","500","1000","The main experiment item","yes","NA","ABX_v3.osexp","/home/ubuntu/Desktop/panara","no","no","mono","no","18","no","white","no","yes","768","28","28","/home/ubuntu/Desktop/panara/subject-104.csv","Jazzy James","3.1.3","4.2.1.wav","4.2.3.wav","4.2.3.wav","0","0","NA","0","NA","792","NA","792","NA","8503894","space","2","1024","2","48000","-16","experiment","4.2.1.wav","4.2.3.wav","4.2.3.wav","104","even","8666248","8668708","8668208","8667466","NA","NA","8665248","8669463","962","NA","NA","8665246","8670255","NA","8665246","8504859","NA","8665248","965","New experiment","NA","0","0","0","yes","1024"
"undefined","undefined","undefined","undefined","black","no","legacy","0","uniform","undefined","undefined","undefined","29","29","59","29","29","NA","29","29","0","0","0","29","29","0","29","0","NA","29","0","Mon 10 Jun 2019 11:41:15 AM PDT","500","1000","The main experiment item","yes","NA","ABX_v3.osexp","/home/ubuntu/Desktop/panara","yes","no","mono","no","18","no","white","no","yes","768","29","29","/home/ubuntu/Desktop/panara/subject-104.csv","Jazzy James","3.1.3","2.2.3.wav","2.2.3.wav","2.2.1.wav","0","1","NA","1","NA","1042","NA","1042","NA","8503894","space","2","1024","2","48000","-16","experiment","2.2.1.wav","2.2.3.wav","2.2.3.wav","104","even","8671449","8673913","8673413","8672691","NA","NA","8670449","8674669","962","NA","NA","8670446","8675711","NA","8670445","8504859","NA","8670449","965","New experiment","NA","0","0","0","yes","1024"
"undefined","undefined","undefined","undefined","black","no","legacy","0","uniform","undefined","undefined","undefined","30","30","61","30","30","NA","30","30","0","0","0","30","30","0","30","0","NA","30","0","Mon 10 Jun 2019 11:41:15 AM PDT","500","1000","The main experiment item","yes","NA","ABX_v3.osexp","/home/ubuntu/Desktop/panara","yes","no","mono","no","18","no","white","no","yes","768","30","30","/home/ubuntu/Desktop/panara/subject-104.csv","Jazzy James","3.1.3","1.1.5.wav","1.1.5.wav","1.1.3.wav","0","1","NA","1","NA","1018","NA","1018","NA","8503894","space","2","1024","2","48000","-16","experiment","1.1.3.wav","1.1.5.wav","1.1.5.wav","104","even","8676868","8679418","8678918","8678146","NA","NA","8675868","8680228","962","NA","NA","8675865","8681247","NA","8675865","8504859","NA","8675868","965","New experiment","NA","0","0","0","yes","1024"
"undefined","undefined","undefined","undefined","black","no","legacy","0","uniform","undefined","undefined","undefined","31","31","63","31","31","NA","31","31","0","0","0","31","31","0","31","0","NA","31","0","Mon 10 Jun 2019 11:41:15 AM PDT","500","1000","The main experiment item","yes","NA","ABX_v3.osexp","/home/ubuntu/Desktop/panara","no","no","mono","no","18","no","white","no","yes","768","31","31","/home/ubuntu/Desktop/panara/subject-104.csv","Jazzy James","3.1.3","5.2.3.wav","5.2.3.wav","5.2.5.wav","0","1","NA","1","NA","1369","NA","1369","NA","8503894","space","2","1024","2","48000","-16","experiment","5.2.3.wav","5.2.5.wav","5.2.3.wav","104","even","8682396","8684871","8684371","8683619","NA","NA","8681396","8685590","962","NA","NA","8681393","8686959","NA","8681393","8504859","NA","8681396","965","New experiment","NA","0","0","0","yes","1024"
"undefined","undefined","undefined","undefined","black","no","legacy","0","uniform","undefined","undefined","undefined","32","32","65","32","32","NA","32","32","0","0","0","32","32","0","32","0","NA","32","0","Mon 10 Jun 2019 11:41:15 AM PDT","500","1000","The main experiment item","yes","NA","ABX_v3.osexp","/home/ubuntu/Desktop/panara","yes","no","mono","no","18","no","white","no","yes","768","32","32","/home/ubuntu/Desktop/panara/subject-104.csv","Jazzy James","3.1.3","5.2.3.wav","5.2.3.wav","5.2.1.wav","0","1","NA","1","NA","1047","NA","1047","NA","8503894","space","2","1024","2","48000","-16","experiment","5.2.1.wav","5.2.3.wav","5.2.3.wav","104","even","8688163","8690652","8690152","8689416","NA","NA","8687163","8691351","962","NA","NA","8687160","8692398","NA","8687160","8504859","NA","8687163","965","New experiment","NA","0","0","0","yes","1024"
"undefined","undefined","undefined","undefined","black","no","legacy","0","uniform","undefined","undefined","undefined","33","33","67","33","33","NA","33","33","0","0","0","33","33","0","33","0","NA","33","0","Mon 10 Jun 2019 11:41:15 AM PDT","500","1000","The main experiment item","yes","NA","ABX_v3.osexp","/home/ubuntu/Desktop/panara","yes","no","mono","no","18","no","white","no","yes","768","33","33","/home/ubuntu/Desktop/panara/subject-104.csv","Jazzy James","3.1.3","1.2.3.wav","1.2.1.wav","1.2.1.wav","0","0","NA","0","NA","797","NA","797","NA","8503894","space","2","1024","2","48000","-16","experiment","1.2.1.wav","1.2.3.wav","1.2.1.wav","104","even","8693553","8696114","8695614","8694833","NA","NA","8692553","8696896","962","NA","NA","8692550","8697694","NA","8692550","8504859","NA","8692553","965","New experiment","NA","0","0","0","yes","1024"
"undefined","undefined","undefined","undefined","black","no","legacy","0","uniform","undefined","undefined","undefined","34","34","69","34","34","NA","34","34","0","0","0","34","34","0","34","0","NA","34","0","Mon 10 Jun 2019 11:41:15 AM PDT","500","1000","The main experiment item","yes","NA","ABX_v3.osexp","/home/ubuntu/Desktop/panara","yes","no","mono","no","18","no","white","no","yes","768","34","34","/home/ubuntu/Desktop/panara/subject-104.csv","Jazzy James","3.1.3","1.1.4.wav","1.1.4.wav","1.1.2.wav","0","0","NA","0","NA","1079","NA","1079","NA","8503894","space","2","1024","2","48000","-16","experiment","1.1.2.wav","1.1.4.wav","1.1.4.wav","104","even","8698878","8701426","8700926","8700145","NA","NA","8697878","8702206","962","NA","NA","8697875","8703285","NA","8697875","8504859","NA","8697878","965","New experiment","NA","0","0","0","yes","1024"
"undefined","undefined","undefined","undefined","black","no","legacy","0","uniform","undefined","undefined","undefined","35","35","71","35","35","NA","35","35","0","0","0","35","35","0","35","0","NA","35","0","Mon 10 Jun 2019 11:41:15 AM PDT","500","1000","The main experiment item","yes","NA","ABX_v3.osexp","/home/ubuntu/Desktop/panara","yes","no","mono","no","18","no","white","no","yes","768","35","35","/home/ubuntu/Desktop/panara/subject-104.csv","Jazzy James","3.1.3","1.2.5.wav","1.2.3.wav","1.2.3.wav","0","0","NA","0","NA","1198","NA","1198","NA","8503894","space","2","1024","2","48000","-16","experiment","1.2.3.wav","1.2.5.wav","1.2.3.wav","104","even","8704445","8707015","8706515","8705734","NA","NA","8703445","8707799","962","NA","NA","8703442","8708998","NA","8703442","8504859","NA","8703445","965","New experiment","NA","0","0","0","yes","1024"
"undefined","undefined","undefined","undefined","black","no","legacy","0","uniform","undefined","undefined","undefined","36","36","73","36","36","NA","36","36","0","0","0","36","36","0","36","0","NA","36","0","Mon 10 Jun 2019 11:41:15 AM PDT","500","1000","The main experiment item","yes","NA","ABX_v3.osexp","/home/ubuntu/Desktop/panara","yes","no","mono","no","18","no","white","no","yes","768","36","36","/home/ubuntu/Desktop/panara/subject-104.csv","Jazzy James","3.1.3","3.2.4.wav","3.2.2.wav","3.2.2.wav","0","1","NA","1","NA","698","NA","698","NA","8503894","space","2","1024","2","48000","-16","experiment","3.2.2.wav","3.2.4.wav","3.2.2.wav","104","even","8710170","8712715","8712215","8711437","NA","NA","8709170","8713498","962","NA","NA","8709167","8714197","NA","8709167","8504859","NA","8709170","965","New experiment","NA","0","0","0","yes","1024"
"undefined","undefined","undefined","undefined","black","no","legacy","0","uniform","undefined","undefined","undefined","37","37","75","37","37","NA","37","37","0","0","0","37","37","0","37","0","NA","37","0","Mon 10 Jun 2019 11:41:15 AM PDT","500","1000","The main experiment item","yes","NA","ABX_v3.osexp","/home/ubuntu/Desktop/panara","no","no","mono","no","18","no","white","no","yes","768","37","37","/home/ubuntu/Desktop/panara/subject-104.csv","Jazzy James","3.1.3","3.1.3.wav","3.1.5.wav","3.1.5.wav","0","1","NA","1","NA","918","NA","918","NA","8503894","space","2","1024","2","48000","-16","experiment","3.1.3.wav","3.1.5.wav","3.1.5.wav","104","even","8715410","8717950","8717450","8716670","NA","NA","8714410","8718718","962","NA","NA","8714407","8719636","NA","8714407","8504859","NA","8714410","965","New experiment","NA","0","0","0","yes","1024"
"undefined","undefined","undefined","undefined","black","no","legacy","0","uniform","undefined","undefined","undefined","38","38","77","38","38","NA","38","38","0","0","0","38","38","0","38","0","NA","38","0","Mon 10 Jun 2019 11:41:15 AM PDT","500","1000","The main experiment item","yes","NA","ABX_v3.osexp","/home/ubuntu/Desktop/panara","yes","no","mono","no","18","no","white","no","yes","768","38","38","/home/ubuntu/Desktop/panara/subject-104.csv","Jazzy James","3.1.3","1.2.5.wav","1.2.5.wav","1.2.3.wav","0","1","NA","1","NA","661","NA","661","NA","8503894","space","2","1024","2","48000","-16","experiment","1.2.3.wav","1.2.5.wav","1.2.5.wav","104","even","8720794","8723361","8722861","8722081","NA","NA","8719794","8724143","962","NA","NA","8719791","8724805","NA","8719791","8504859","NA","8719794","965","New experiment","NA","0","0","0","yes","1024"
"undefined","undefined","undefined","undefined","black","no","legacy","0","uniform","undefined","undefined","undefined","39","39","79","39","39","NA","39","39","0","0","0","39","39","0","39","0","NA","39","0","Mon 10 Jun 2019 11:41:15 AM PDT","500","1000","The main experiment item","yes","NA","ABX_v3.osexp","/home/ubuntu/Desktop/panara","no","no","mono","no","18","no","white","no","yes","768","39","39","/home/ubuntu/Desktop/panara/subject-104.csv","Jazzy James","3.1.3","4.1.3.wav","4.1.5.wav","4.1.5.wav","0","0","NA","0","NA","636","NA","636","NA","8503894","space","2","1024","2","48000","-16","experiment","4.1.3.wav","4.1.5.wav","4.1.5.wav","104","even","8725979","8728417","8727917","8727193","NA","NA","8724978","8729135","962","NA","NA","8724976","8729772","NA","8724976","8504859","NA","8724979","965","New experiment","NA","0","0","0","yes","1024"
"undefined","undefined","undefined","undefined","black","no","legacy","0","uniform","undefined","undefined","undefined","40","40","81","40","40","NA","40","40","0","0","0","40","40","0","40","0","NA","40","0","Mon 10 Jun 2019 11:41:15 AM PDT","500","1000","The main experiment item","yes","NA","ABX_v3.osexp","/home/ubuntu/Desktop/panara","yes","no","mono","no","18","no","white","no","yes","768","40","40","/home/ubuntu/Desktop/panara/subject-104.csv","Jazzy James","3.1.3","2.1.3.wav","2.1.1.wav","2.1.1.wav","0","0","NA","0","NA","585","NA","585","NA","8503894","space","2","1024","2","48000","-16","experiment","2.1.1.wav","2.1.3.wav","2.1.1.wav","104","even","8730967","8733473","8732973","8732221","NA","NA","8729966","8734227","962","NA","NA","8729964","8734812","NA","8729964","8504859","NA","8729966","965","New experiment","NA","0","0","0","yes","1024"
"undefined","undefined","undefined","undefined","black","no","legacy","0","uniform","undefined","undefined","undefined","41","41","83","41","41","NA","41","41","0","0","0","41","41","0","41","0","NA","41","0","Mon 10 Jun 2019 11:41:15 AM PDT","500","1000","The main experiment item","yes","NA","ABX_v3.osexp","/home/ubuntu/Desktop/panara","no","no","mono","no","18","no","white","no","yes","768","41","41","/home/ubuntu/Desktop/panara/subject-104.csv","Jazzy James","3.1.3","5.2.2.wav","5.2.4.wav","5.2.4.wav","0","1","NA","1","NA","798","NA","798","NA","8503894","space","2","1024","2","48000","-16","experiment","5.2.2.wav","5.2.4.wav","5.2.4.wav","104","even","8735969","8738443","8737943","8737191","NA","NA","8734969","8739197","962","NA","NA","8734967","8739996","NA","8734967","8504859","NA","8734969","965","New experiment","NA","0","0","0","yes","1024"
"undefined","undefined","undefined","undefined","black","no","legacy","0","uniform","undefined","undefined","undefined","42","42","85","42","42","NA","42","42","0","0","0","42","42","0","42","0","NA","42","0","Mon 10 Jun 2019 11:41:15 AM PDT","500","1000","The main experiment item","yes","NA","ABX_v3.osexp","/home/ubuntu/Desktop/panara","no","no","mono","no","18","no","white","no","yes","768","42","42","/home/ubuntu/Desktop/panara/subject-104.csv","Jazzy James","3.1.3","4.2.3.wav","4.2.3.wav","4.2.5.wav","0","1","NA","1","NA","3452","NA","3452","NA","8503894","space","2","1024","2","48000","-16","experiment","4.2.3.wav","4.2.5.wav","4.2.3.wav","104","even","8741168","8743668","8743168","8742419","NA","NA","8740168","8744423","962","NA","NA","8740165","8747875","NA","8740165","8504859","NA","8740168","965","New experiment","NA","0","0","0","yes","1024"
"undefined","undefined","undefined","undefined","black","no","legacy","0","uniform","undefined","undefined","undefined","43","43","87","43","43","NA","43","43","0","0","0","43","43","0","43","0","NA","43","0","Mon 10 Jun 2019 11:41:15 AM PDT","500","1000","The main experiment item","yes","NA","ABX_v3.osexp","/home/ubuntu/Desktop/panara","yes","no","mono","no","18","no","white","no","yes","768","43","43","/home/ubuntu/Desktop/panara/subject-104.csv","Jazzy James","3.1.3","3.2.4.wav","3.2.4.wav","3.2.2.wav","0","0","NA","0","NA","898","NA","898","NA","8503894","space","2","1024","2","48000","-16","experiment","3.2.2.wav","3.2.4.wav","3.2.4.wav","104","even","8749052","8751560","8751060","8750311","NA","NA","8748051","8752344","962","NA","NA","8748049","8753242","NA","8748049","8504859","NA","8748052","965","New experiment","NA","0","0","0","yes","1024"
"undefined","undefined","undefined","undefined","black","no","legacy","0","uniform","undefined","undefined","undefined","44","44","89","44","44","NA","44","44","0","0","0","44","44","0","44","0","NA","44","0","Mon 10 Jun 2019 11:41:15 AM PDT","500","1000","The main experiment item","yes","NA","ABX_v3.osexp","/home/ubuntu/Desktop/panara","no","no","mono","no","18","no","white","no","yes","768","44","44","/home/ubuntu/Desktop/panara/subject-104.csv","Jazzy James","3.1.3","2.2.3.wav","2.2.5.wav","2.2.5.wav","0","0","NA","0","NA","631","NA","631","NA","8503894","space","2","1024","2","48000","-16","experiment","2.2.3.wav","2.2.5.wav","2.2.5.wav","104","even","8754396","8756845","8756345","8755630","NA","NA","8753396","8757570","962","NA","NA","8753393","8758202","NA","8753393","8504859","NA","8753396","965","New experiment","NA","0","0","0","yes","1024"
"undefined","undefined","undefined","undefined","black","no","legacy","0","uniform","undefined","undefined","undefined","45","45","91","45","45","NA","45","45","0","0","0","45","45","0","45","0","NA","45","0","Mon 10 Jun 2019 11:41:15 AM PDT","500","1000","The main experiment item","yes","NA","ABX_v3.osexp","/home/ubuntu/Desktop/panara","yes","no","mono","no","18","no","white","no","yes","768","45","45","/home/ubuntu/Desktop/panara/subject-104.csv","Jazzy James","3.1.3","4.2.5.wav","4.2.5.wav","4.2.3.wav","0","1","NA","1","NA","5847","NA","5847","NA","8503894","space","2","1024","2","48000","-16","experiment","4.2.3.wav","4.2.5.wav","4.2.5.wav","104","even","8759355","8761820","8761320","8760585","NA","NA","8758355","8762570","962","NA","NA","8758353","8768417","NA","8758352","8504859","NA","8758355","965","New experiment","NA","0","0","0","yes","1024"
"undefined","undefined","undefined","undefined","black","no","legacy","0","uniform","undefined","undefined","undefined","46","46","93","46","46","NA","46","46","0","0","0","46","46","0","46","0","NA","46","0","Mon 10 Jun 2019 11:41:15 AM PDT","500","1000","The main experiment item","yes","NA","ABX_v3.osexp","/home/ubuntu/Desktop/panara","no","no","mono","no","18","no","white","no","yes","768","46","46","/home/ubuntu/Desktop/panara/subject-104.csv","Jazzy James","3.1.3","4.1.3.wav","4.1.3.wav","4.1.5.wav","0","1","NA","1","NA","792","NA","792","NA","8503894","space","2","1024","2","48000","-16","experiment","4.1.3.wav","4.1.5.wav","4.1.3.wav","104","even","8769614","8772329","8771829","8770861","NA","NA","8768614","8773057","962","NA","NA","8768612","8773850","NA","8768612","8504859","NA","8768614","965","New experiment","NA","0","0","0","yes","1024"
"undefined","undefined","undefined","undefined","black","no","legacy","0","uniform","undefined","undefined","undefined","47","47","95","47","47","NA","47","47","0","0","0","47","47","0","47","0","NA","47","0","Mon 10 Jun 2019 11:41:15 AM PDT","500","1000","The main experiment item","yes","NA","ABX_v3.osexp","/home/ubuntu/Desktop/panara","yes","no","mono","no","18","no","white","no","yes","768","47","47","/home/ubuntu/Desktop/panara/subject-104.csv","Jazzy James","3.1.3","5.2.3.wav","5.2.1.wav","5.2.1.wav","0","1","NA","1","NA","845","NA","845","NA","8503894","space","2","1024","2","48000","-16","experiment","5.2.1.wav","5.2.3.wav","5.2.1.wav","104","even","8775000","8777445","8776945","8776221","NA","NA","8774000","8778155","962","NA","NA","8773998","8779000","NA","8773998","8504859","NA","8774000","965","New experiment","NA","0","0","0","yes","1024"
"undefined","undefined","undefined","undefined","black","no","legacy","0","uniform","undefined","undefined","undefined","48","48","97","48","48","NA","48","48","0","0","0","48","48","0","48","0","NA","48","0","Mon 10 Jun 2019 11:41:15 AM PDT","500","1000","The main experiment item","yes","NA","ABX_v3.osexp","/home/ubuntu/Desktop/panara","yes","no","mono","no","18","no","white","no","yes","768","48","48","/home/ubuntu/Desktop/panara/subject-104.csv","Jazzy James","3.1.3","2.1.4.wav","2.1.2.wav","2.1.2.wav","0","1","NA","1","NA","2125","NA","2125","NA","8503894","space","2","1024","2","48000","-16","experiment","2.1.2.wav","2.1.4.wav","2.1.2.wav","104","even","8780170","8782663","8782163","8781421","NA","NA","8779169","8783419","962","NA","NA","8779167","8785544","NA","8779166","8504859","NA","8779170","965","New experiment","NA","0","0","0","yes","1024"
"undefined","undefined","undefined","undefined","black","no","legacy","0","uniform","undefined","undefined","undefined","49","49","99","49","49","NA","49","49","0","0","0","49","49","0","49","0","NA","49","0","Mon 10 Jun 2019 11:41:15 AM PDT","500","1000","The main experiment item","yes","NA","ABX_v3.osexp","/home/ubuntu/Desktop/panara","no","no","mono","no","18","no","white","no","yes","768","49","49","/home/ubuntu/Desktop/panara/subject-104.csv","Jazzy James","3.1.3","4.2.2.wav","4.2.2.wav","4.2.4.wav","0","0","NA","0","NA","2478","NA","2478","NA","8503894","space","2","1024","2","48000","-16","experiment","4.2.2.wav","4.2.4.wav","4.2.2.wav","104","even","8786707","8789169","8788669","8787947","NA","NA","8785707","8789889","962","NA","NA","8785704","8792368","NA","8785704","8504859","NA","8785707","965","New experiment","NA","0","0","0","yes","1024"
"undefined","undefined","undefined","undefined","black","no","legacy","0","uniform","undefined","undefined","undefined","50","50","101","50","50","NA","50","50","0","0","0","50","50","0","50","0","NA","50","0","Mon 10 Jun 2019 11:41:15 AM PDT","500","1000","The main experiment item","yes","NA","ABX_v3.osexp","/home/ubuntu/Desktop/panara","yes","no","mono","no","18","no","white","no","yes","768","50","50","/home/ubuntu/Desktop/panara/subject-104.csv","Jazzy James","3.1.3","1.1.4.wav","1.1.2.wav","1.1.2.wav","0","0","1","0","NA","2509","2803","2509","NA","8503894","space","2","1024","2","48000","-16","experiment","1.1.2.wav","1.1.4.wav","1.1.2.wav","104","even","8796338","8798926","8798426","8797626","8792532","NA","8795337","8799729","962","NA","NA","8792530","8802239","NA","8792530","8504859","NA","8795338","965","New experiment","NA","0","0","0","yes","1024"
"undefined","undefined","undefined","undefined","black","no","legacy","0","uniform","undefined","undefined","undefined","51","51","103","51","51","NA","51","51","0","0","0","51","51","0","51","0","NA","51","0","Mon 10 Jun 2019 11:41:15 AM PDT","500","1000","The main experiment item","yes","NA","ABX_v3.osexp","/home/ubuntu/Desktop/panara","no","no","mono","no","18","no","white","no","yes","768","51","51","/home/ubuntu/Desktop/panara/subject-104.csv","Jazzy James","3.1.3","4.1.1.wav","4.1.3.wav","4.1.3.wav","0","0","1","0","NA","559","2803","559","NA","8503894","space","2","1024","2","48000","-16","experiment","4.1.1.wav","4.1.3.wav","4.1.3.wav","104","even","8803418","8805851","8805351","8804629","8792532","NA","8802417","8806591","962","NA","NA","8802415","8807151","NA","8802414","8504859","NA","8802418","965","New experiment","NA","0","0","0","yes","1024"
"undefined","undefined","undefined","undefined","black","no","legacy","0","uniform","undefined","undefined","undefined","52","52","105","52","52","NA","52","52","0","0","0","52","52","0","52","0","NA","52","0","Mon 10 Jun 2019 11:41:15 AM PDT","500","1000","The main experiment item","yes","NA","ABX_v3.osexp","/home/ubuntu/Desktop/panara","yes","no","mono","no","18","no","white","no","yes","768","52","52","/home/ubuntu/Desktop/panara/subject-104.csv","Jazzy James","3.1.3","2.1.3.wav","2.1.3.wav","2.1.1.wav","0","0","1","0","NA","573","2803","573","NA","8503894","space","2","1024","2","48000","-16","experiment","2.1.1.wav","2.1.3.wav","2.1.3.wav","104","even","8808312","8810815","8810315","8809562","8792532","NA","8807312","8811569","962","NA","NA","8807309","8812142","NA","8807309","8504859","NA","8807312","965","New experiment","NA","0","0","0","yes","1024"
"undefined","undefined","undefined","undefined","black","no","legacy","0","uniform","undefined","undefined","undefined","53","53","107","53","53","NA","53","53","0","0","0","53","53","0","53","0","NA","53","0","Mon 10 Jun 2019 11:41:15 AM PDT","500","1000","The main experiment item","yes","NA","ABX_v3.osexp","/home/ubuntu/Desktop/panara","no","no","mono","no","18","no","white","no","yes","768","53","53","/home/ubuntu/Desktop/panara/subject-104.csv","Jazzy James","3.1.3","2.2.1.wav","2.2.1.wav","2.2.3.wav","0","1","1","1","NA","730","2803","730","NA","8503894","space","2","1024","2","48000","-16","experiment","2.2.1.wav","2.2.3.wav","2.2.1.wav","104","even","8813322","8815744","8815244","8814527","8792532","NA","8812322","8816467","962","NA","NA","8812319","8817198","NA","8812319","8504859","NA","8812322","965","New experiment","NA","0","0","0","yes","1024"
"undefined","undefined","undefined","undefined","black","no","legacy","0","uniform","undefined","undefined","undefined","54","54","109","54","54","NA","54","54","0","0","0","54","54","0","54","0","NA","54","0","Mon 10 Jun 2019 11:41:15 AM PDT","500","1000","The main experiment item","yes","NA","ABX_v3.osexp","/home/ubuntu/Desktop/panara","no","no","mono","no","18","no","white","no","yes","768","0","53","/home/ubuntu/Desktop/panara/subject-104.csv","Jazzy James","3.1.3","4.2.3.wav","3.2.3.wav","3.2.5.wav","0","0","1","0","NA","688","2803","688","NA","8503894","space","2","1024","2","48000","-16","experiment","4.2.3.wav","3.2.5.wav","3.2.3.wav","104","even","8818408","8820911","8820411","8819669","8792532","NA","8817408","8821693","962","NA","NA","8817406","8822382","8817323","8817406","8504859","NA","8817408","965","New experiment","NA","0","0","0","yes","1024"
"undefined","undefined","undefined","undefined","black","no","legacy","0","uniform","undefined","undefined","undefined","55","55","111","55","55","NA","55","55","0","0","0","55","55","0","55","0","NA","55","0","Mon 10 Jun 2019 11:41:15 AM PDT","500","1000","The main experiment item","yes","NA","ABX_v3.osexp","/home/ubuntu/Desktop/panara","yes","no","mono","no","18","no","white","no","yes","768","1","53","/home/ubuntu/Desktop/panara/subject-104.csv","Jazzy James","3.1.3","3.2.3.wav","4.2.3.wav","4.2.1.wav","0","1","1","1","NA","693","2803","693","NA","8503894","space","2","1024","2","48000","-16","experiment","4.2.1.wav","3.2.3.wav","4.2.3.wav","104","even","8823561","8826052","8825552","8824810","8792532","NA","8822560","8826808","962","NA","NA","8822558","8827501","8817323","8822558","8504859","NA","8822560","965","New experiment","NA","0","0","0","yes","1024"
"undefined","undefined","undefined","undefined","black","no","legacy","0","uniform","undefined","undefined","undefined","56","56","113","56","56","NA","56","56","0","0","0","56","56","0","56","0","NA","56","0","Mon 10 Jun 2019 11:41:15 AM PDT","500","1000","The main experiment item","yes","NA","ABX_v3.osexp","/home/ubuntu/Desktop/panara","yes","no","mono","no","18","no","white","no","yes","768","2","53","/home/ubuntu/Desktop/panara/subject-104.csv","Jazzy James","3.1.3","1.2.3.wav","1.2.1.wav","1.1.1.wav","0","1","1","1","NA","667","2803","667","NA","8503894","space","2","1024","2","48000","-16","experiment","1.1.1.wav","1.2.3.wav","1.2.1.wav","104","even","8828716","8831289","8830789","8830007","8792532","NA","8827716","8832097","962","NA","NA","8827713","8832765","8817323","8827713","8504859","NA","8827716","965","New experiment","NA","0","0","0","yes","1024"
"undefined","undefined","undefined","undefined","black","no","legacy","0","uniform","undefined","undefined","undefined","57","57","115","57","57","NA","57","57","0","0","0","57","57","0","57","0","NA","57","0","Mon 10 Jun 2019 11:41:15 AM PDT","500","1000","The main experiment item","yes","NA","ABX_v3.osexp","/home/ubuntu/Desktop/panara","yes","no","mono","no","18","no","white","no","yes","768","3","53","/home/ubuntu/Desktop/panara/subject-104.csv","Jazzy James","3.1.3","4.1.4.wav","4.1.2.wav","4.2.2.wav","0","0","1","0","NA","572","2803","572","NA","8503894","space","2","1024","2","48000","-16","experiment","4.2.2.wav","4.1.4.wav","4.1.2.wav","104","even","8833897","8836574","8836074","8835345","8792532","NA","8832896","8837329","962","NA","NA","8832894","8837902","8817323","8832894","8504859","NA","8832897","965","New experiment","NA","0","0","0","yes","1024"
"undefined","undefined","undefined","undefined","black","no","legacy","0","uniform","undefined","undefined","undefined","58","58","117","58","58","NA","58","58","0","0","0","58","58","0","58","0","NA","58","0","Mon 10 Jun 2019 11:41:15 AM PDT","500","1000","The main experiment item","yes","NA","ABX_v3.osexp","/home/ubuntu/Desktop/panara","no","no","mono","no","18","no","white","no","yes","768","4","53","/home/ubuntu/Desktop/panara/subject-104.csv","Jazzy James","3.1.3","3.1.1.wav","1.1.1.wav","1.1.3.wav","0","0","1","0","NA","762","2803","762","NA","8503894","space","2","1024","2","48000","-16","experiment","3.1.1.wav","1.1.3.wav","1.1.1.wav","104","even","8839020","8841581","8841081","8840264","8792532","NA","8838020","8842362","962","NA","NA","8838017","8843124","8817323","8838017","8504859","NA","8838020","965","New experiment","NA","0","0","0","yes","1024"
"undefined","undefined","undefined","undefined","black","no","legacy","0","uniform","undefined","undefined","undefined","59","59","119","59","59","NA","59","59","0","0","0","59","59","0","59","0","NA","59","0","Mon 10 Jun 2019 11:41:15 AM PDT","500","1000","The main experiment item","yes","NA","ABX_v3.osexp","/home/ubuntu/Desktop/panara","no","no","mono","no","18","no","white","no","yes","768","5","53","/home/ubuntu/Desktop/panara/subject-104.csv","Jazzy James","3.1.3","2.2.3.wav","2.1.3.wav","2.1.5.wav","0","1","1","1","NA","1551","2803","1551","NA","8503894","space","2","1024","2","48000","-16","experiment","2.2.3.wav","2.1.5.wav","2.1.3.wav","104","even","8844258","8846722","8846222","8845470","8792532","NA","8843257","8847476","962","NA","NA","8843255","8849028","8817323","8843255","8504859","NA","8843258","965","New experiment","NA","0","0","0","yes","1024"
"undefined","undefined","undefined","undefined","black","no","legacy","0","uniform","undefined","undefined","undefined","60","60","121","60","60","NA","60","60","0","0","0","60","60","0","60","0","NA","60","0","Mon 10 Jun 2019 11:41:15 AM PDT","500","1000","The main experiment item","yes","NA","ABX_v3.osexp","/home/ubuntu/Desktop/panara","yes","no","mono","no","18","no","white","no","yes","768","6","53","/home/ubuntu/Desktop/panara/subject-104.csv","Jazzy James","3.1.3","3.1.3.wav","3.1.1.wav","4.1.1.wav","0","1","1","1","NA","2040","2803","2040","NA","8503894","space","2","1024","2","48000","-16","experiment","4.1.1.wav","3.1.3.wav","3.1.1.wav","104","even","8850186","8852697","8852197","8851443","8792532","NA","8849185","8853419","962","NA","NA","8849183","8855460","8817323","8849183","8504859","NA","8849186","965","New experiment","NA","0","0","0","yes","1024"
"undefined","undefined","undefined","undefined","black","no","legacy","0","uniform","undefined","undefined","undefined","61","61","123","61","61","NA","61","61","0","0","0","61","61","0","61","0","NA","61","0","Mon 10 Jun 2019 11:41:15 AM PDT","500","1000","The main experiment item","yes","NA","ABX_v3.osexp","/home/ubuntu/Desktop/panara","yes","no","mono","no","18","no","white","no","yes","768","7","53","/home/ubuntu/Desktop/panara/subject-104.csv","Jazzy James","3.1.3","1.2.5.wav","1.2.3.wav","1.1.3.wav","0","0","1","0","NA","2231","2803","2231","NA","8503894","space","2","1024","2","48000","-16","experiment","1.1.3.wav","1.2.5.wav","1.2.3.wav","104","even","8856619","8859179","8858679","8857892","8792532","NA","8855619","8859964","962","NA","NA","8855617","8862195","8817323","8855617","8504859","NA","8855619","965","New experiment","NA","0","0","0","yes","1024"
"undefined","undefined","undefined","undefined","black","no","legacy","0","uniform","undefined","undefined","undefined","62","62","125","62","62","NA","62","62","0","0","0","62","62","0","62","0","NA","62","0","Mon 10 Jun 2019 11:41:15 AM PDT","500","1000","The main experiment item","yes","NA","ABX_v3.osexp","/home/ubuntu/Desktop/panara","no","no","mono","no","18","no","white","no","yes","768","8","53","/home/ubuntu/Desktop/panara/subject-104.csv","Jazzy James","3.1.3","1.1.1.wav","1.1.3.wav","2.1.3.wav","0","1","1","1","NA","2058","2803","2058","NA","8503894","space","2","1024","2","48000","-16","experiment","1.1.1.wav","2.1.3.wav","1.1.3.wav","104","even","8863340","8865942","8865442","8864663","8792532","NA","8862340","8866688","962","NA","NA","8862337","8868747","8817323","8862337","8504859","NA","8862340","965","New experiment","NA","0","0","0","yes","1024"
"undefined","undefined","undefined","undefined","black","no","legacy","0","uniform","undefined","undefined","undefined","63","63","127","63","63","NA","63","63","0","0","0","63","63","0","63","0","NA","63","0","Mon 10 Jun 2019 11:41:15 AM PDT","500","1000","The main experiment item","yes","NA","ABX_v3.osexp","/home/ubuntu/Desktop/panara","yes","no","mono","no","18","no","white","no","yes","768","9","53","/home/ubuntu/Desktop/panara/subject-104.csv","Jazzy James","3.1.3","3.1.5.wav","3.1.3.wav","3.2.3.wav","0","0","1","0","NA","897","2803","897","NA","8503894","space","2","1024","2","48000","-16","experiment","3.2.3.wav","3.1.5.wav","3.1.3.wav","104","even","8869910","8872428","8871928","8871182","8792532","NA","8868910","8873193","962","NA","NA","8868908","8874090","8817323","8868908","8504859","NA","8868910","965","New experiment","NA","0","0","0","yes","1024"
"undefined","undefined","undefined","undefined","black","no","legacy","0","uniform","undefined","undefined","undefined","64","64","129","64","64","NA","64","64","0","0","0","64","64","0","64","0","NA","64","0","Mon 10 Jun 2019 11:41:15 AM PDT","500","1000","The main experiment item","yes","NA","ABX_v3.osexp","/home/ubuntu/Desktop/panara","no","no","mono","no","18","no","white","no","yes","768","10","53","/home/ubuntu/Desktop/panara/subject-104.csv","Jazzy James","3.1.3","3.1.1.wav","3.1.3.wav","3.2.3.wav","0","1","1","1","NA","949","2803","949","NA","8503894","space","2","1024","2","48000","-16","experiment","3.1.1.wav","3.2.3.wav","3.1.3.wav","104","even","8875255","8877752","8877252","8876503","8792532","NA","8874255","8878492","962","NA","NA","8874252","8879442","8817323","8874252","8504859","NA","8874255","965","New experiment","NA","0","0","0","yes","1024"
"undefined","undefined","undefined","undefined","black","no","legacy","0","uniform","undefined","undefined","undefined","65","65","131","65","65","NA","65","65","0","0","0","65","65","0","65","0","NA","65","0","Mon 10 Jun 2019 11:41:15 AM PDT","500","1000","The main experiment item","yes","NA","ABX_v3.osexp","/home/ubuntu/Desktop/panara","yes","no","mono","no","18","no","white","no","yes","768","11","53","/home/ubuntu/Desktop/panara/subject-104.csv","Jazzy James","3.1.3","2.1.3.wav","2.2.3.wav","2.2.1.wav","0","1","1","1","NA","1043","2803","1043","NA","8503894","space","2","1024","2","48000","-16","experiment","2.2.1.wav","2.1.3.wav","2.2.3.wav","104","even","8880614","8883114","8882614","8881861","8792532","NA","8879614","8883839","962","NA","NA","8879611","8884883","8817323","8879611","8504859","NA","8879614","965","New experiment","NA","0","0","0","yes","1024"
"undefined","undefined","undefined","undefined","black","no","legacy","0","uniform","undefined","undefined","undefined","66","66","133","66","66","NA","66","66","0","0","0","66","66","0","66","0","NA","66","0","Mon 10 Jun 2019 11:41:15 AM PDT","500","1000","The main experiment item","yes","NA","ABX_v3.osexp","/home/ubuntu/Desktop/panara","yes","no","mono","no","18","no","white","no","yes","768","12","53","/home/ubuntu/Desktop/panara/subject-104.csv","Jazzy James","3.1.3","2.1.5.wav","2.1.3.wav","1.1.3.wav","0","0","1","0","NA","583","2803","583","NA","8503894","space","2","1024","2","48000","-16","experiment","1.1.3.wav","2.1.5.wav","2.1.3.wav","104","even","8886055","8888560","8888060","8887310","8792532","NA","8885055","8889371","962","NA","NA","8885053","8889954","8817323","8885053","8504859","NA","8885055","965","New experiment","NA","0","0","0","yes","1024"
"undefined","undefined","undefined","undefined","black","no","legacy","0","uniform","undefined","undefined","undefined","67","67","135","67","67","NA","67","67","0","0","0","67","67","0","67","0","NA","67","0","Mon 10 Jun 2019 11:41:15 AM PDT","500","1000","The main experiment item","yes","NA","ABX_v3.osexp","/home/ubuntu/Desktop/panara","no","no","mono","no","18","no","white","no","yes","768","13","53","/home/ubuntu/Desktop/panara/subject-104.csv","Jazzy James","3.1.3","4.1.2.wav","2.1.2.wav","2.1.4.wav","0","0","1","0","NA","590","2803","590","NA","8503894","space","2","1024","2","48000","-16","experiment","4.1.2.wav","2.1.4.wav","2.1.2.wav","104","even","8891123","8893624","8893124","8892374","8792532","NA","8890123","8894371","962","NA","NA","8890120","8894962","8817323","8890120","8504859","NA","8890123","965","New experiment","NA","0","0","0","yes","1024"
"undefined","undefined","undefined","undefined","black","no","legacy","0","uniform","undefined","undefined","undefined","68","68","137","68","68","NA","68","68","0","0","0","68","68","0","68","0","NA","68","0","Mon 10 Jun 2019 11:41:15 AM PDT","500","1000","The main experiment item","yes","NA","ABX_v3.osexp","/home/ubuntu/Desktop/panara","no","no","mono","no","18","no","white","no","yes","768","14","53","/home/ubuntu/Desktop/panara/subject-104.csv","Jazzy James","3.1.3","3.1.3.wav","3.2.3.wav","3.2.5.wav","0","1","1","1","NA","516","2803","516","NA","8503894","space","2","1024","2","48000","-16","experiment","3.1.3.wav","3.2.5.wav","3.2.3.wav","104","even","8896141","8898687","8898187","8897400","8792532","NA","8895140","8899469","962","NA","NA","8895137","8899986","8817323","8895137","8504859","NA","8895140","965","New experiment","NA","0","0","0","yes","1024"
"undefined","undefined","undefined","undefined","black","no","legacy","0","uniform","undefined","undefined","undefined","69","69","139","69","69","NA","69","69","0","0","0","69","69","0","69","0","NA","69","0","Mon 10 Jun 2019 11:41:15 AM PDT","500","1000","The main experiment item","yes","NA","ABX_v3.osexp","/home/ubuntu/Desktop/panara","no","no","mono","no","18","no","white","no","yes","768","15","53","/home/ubuntu/Desktop/panara/subject-104.csv","Jazzy James","3.1.3","4.2.3.wav","2.2.3.wav","2.2.5.wav","0","1","1","1","NA","710","2803","710","NA","8503894","space","2","1024","2","48000","-16","experiment","4.2.3.wav","2.2.5.wav","2.2.3.wav","104","even","8901146","8903614","8903114","8902391","8792532","NA","8900145","8904338","962","NA","NA","8900143","8905048","8817323","8900143","8504859","NA","8900146","965","New experiment","NA","0","0","0","yes","1024"
"undefined","undefined","undefined","undefined","black","no","legacy","0","uniform","undefined","undefined","undefined","70","70","141","70","70","NA","70","70","0","0","0","70","70","0","70","0","NA","70","0","Mon 10 Jun 2019 11:41:15 AM PDT","500","1000","The main experiment item","yes","NA","ABX_v3.osexp","/home/ubuntu/Desktop/panara","no","no","mono","no","18","no","white","no","yes","768","16","53","/home/ubuntu/Desktop/panara/subject-104.csv","Jazzy James","3.1.3","1.1.2.wav","1.1.4.wav","1.2.4.wav","0","1","1","1","NA","778","2803","778","NA","8503894","space","2","1024","2","48000","-16","experiment","1.1.2.wav","1.2.4.wav","1.1.4.wav","104","even","8906214","8908812","8908312","8907531","8792532","NA","8905214","8909565","962","NA","NA","8905211","8910344","8817323","8905211","8504859","NA","8905214","965","New experiment","NA","0","0","0","yes","1024"
"undefined","undefined","undefined","undefined","black","no","legacy","0","uniform","undefined","undefined","undefined","71","71","143","71","71","NA","71","71","0","0","0","71","71","0","71","0","NA","71","0","Mon 10 Jun 2019 11:41:15 AM PDT","500","1000","The main experiment item","yes","NA","ABX_v3.osexp","/home/ubuntu/Desktop/panara","yes","no","mono","no","18","no","white","no","yes","768","17","53","/home/ubuntu/Desktop/panara/subject-104.csv","Jazzy James","3.1.3","4.1.5.wav","4.1.3.wav","4.2.3.wav","0","0","1","0","NA","804","2803","804","NA","8503894","space","2","1024","2","48000","-16","experiment","4.2.3.wav","4.1.5.wav","4.1.3.wav","104","even","8911491","8913959","8913459","8912737","8792532","NA","8910490","8914715","962","NA","NA","8910487","8915520","8817323","8910487","8504859","NA","8910491","965","New experiment","NA","0","0","0","yes","1024"
"undefined","undefined","undefined","undefined","black","no","legacy","0","uniform","undefined","undefined","undefined","72","72","145","72","72","NA","72","72","0","0","0","72","72","0","72","0","NA","72","0","Mon 10 Jun 2019 11:41:15 AM PDT","500","1000","The main experiment item","yes","NA","ABX_v3.osexp","/home/ubuntu/Desktop/panara","no","no","mono","no","18","no","white","no","yes","768","18","53","/home/ubuntu/Desktop/panara/subject-104.csv","Jazzy James","3.1.3","4.2.2.wav","4.2.4.wav","3.2.4.wav","0","1","1","1","NA","1035","2803","1035","NA","8503894","space","2","1024","2","48000","-16","experiment","4.2.2.wav","3.2.4.wav","4.2.4.wav","104","even","8916660","8919128","8918628","8917906","8792532","NA","8915660","8919885","962","NA","NA","8915657","8920920","8817323","8915657","8504859","NA","8915660","965","New experiment","NA","0","0","0","yes","1024"
"undefined","undefined","undefined","undefined","black","no","legacy","0","uniform","undefined","undefined","undefined","73","73","147","73","73","NA","73","73","0","0","0","73","73","0","73","0","NA","73","0","Mon 10 Jun 2019 11:41:15 AM PDT","500","1000","The main experiment item","yes","NA","ABX_v3.osexp","/home/ubuntu/Desktop/panara","no","no","mono","no","18","no","white","no","yes","768","19","53","/home/ubuntu/Desktop/panara/subject-104.csv","Jazzy James","3.1.3","1.2.2.wav","1.2.4.wav","1.1.4.wav","0","1","1","1","NA","999","2803","999","NA","8503894","space","2","1024","2","48000","-16","experiment","1.2.2.wav","1.1.4.wav","1.2.4.wav","104","even","8922098","8924633","8924133","8923390","8792532","NA","8921098","8925415","962","NA","NA","8921095","8926415","8817323","8921095","8504859","NA","8921098","965","New experiment","NA","0","0","0","yes","1024"
"undefined","undefined","undefined","undefined","black","no","legacy","0","uniform","undefined","undefined","undefined","74","74","149","74","74","NA","74","74","0","0","0","74","74","0","74","0","NA","74","0","Mon 10 Jun 2019 11:41:15 AM PDT","500","1000","The main experiment item","yes","NA","ABX_v3.osexp","/home/ubuntu/Desktop/panara","no","no","mono","no","18","no","white","no","yes","768","20","53","/home/ubuntu/Desktop/panara/subject-104.csv","Jazzy James","3.1.3","4.1.2.wav","4.1.4.wav","2.1.4.wav","0","0","1","0","NA","602","2803","602","NA","8503894","space","2","1024","2","48000","-16","experiment","4.1.2.wav","2.1.4.wav","4.1.4.wav","104","even","8927592","8930066","8929566","8928814","8792532","NA","8926592","8930812","962","NA","NA","8926590","8931415","8817323","8926589","8504859","NA","8926592","965","New experiment","NA","0","0","0","yes","1024"
"undefined","undefined","undefined","undefined","black","no","legacy","0","uniform","undefined","undefined","undefined","75","75","151","75","75","NA","75","75","0","0","0","75","75","0","75","0","NA","75","0","Mon 10 Jun 2019 11:41:15 AM PDT","500","1000","The main experiment item","yes","NA","ABX_v3.osexp","/home/ubuntu/Desktop/panara","yes","no","mono","no","18","no","white","no","yes","768","21","53","/home/ubuntu/Desktop/panara/subject-104.csv","Jazzy James","3.1.3","2.2.4.wav","1.2.4.wav","1.2.2.wav","0","0","1","0","NA","691","2803","691","NA","8503894","space","2","1024","2","48000","-16","experiment","1.2.2.wav","2.2.4.wav","1.2.4.wav","104","even","8932601","8935092","8934592","8933841","8792532","NA","8931600","8935875","962","NA","NA","8931598","8936566","8817323","8931598","8504859","NA","8931601","965","New experiment","NA","0","0","0","yes","1024"
"undefined","undefined","undefined","undefined","black","no","legacy","0","uniform","undefined","undefined","undefined","76","76","153","76","76","NA","76","76","0","0","0","76","76","0","76","0","NA","76","0","Mon 10 Jun 2019 11:41:15 AM PDT","500","1000","The main experiment item","yes","NA","ABX_v3.osexp","/home/ubuntu/Desktop/panara","yes","no","mono","no","18","no","white","no","yes","768","22","53","/home/ubuntu/Desktop/panara/subject-104.csv","Jazzy James","3.1.3","3.2.3.wav","3.2.1.wav","1.2.1.wav","0","1","1","1","NA","650","2803","650","NA","8503894","space","2","1024","2","48000","-16","experiment","1.2.1.wav","3.2.3.wav","3.2.1.wav","104","even","8937755","8940284","8939784","8939032","8792532","NA","8936755","8941051","962","NA","NA","8936752","8941702","8817323","8936752","8504859","NA","8936755","965","New experiment","NA","0","0","0","yes","1024"
"undefined","undefined","undefined","undefined","black","no","legacy","0","uniform","undefined","undefined","undefined","77","77","155","77","77","NA","77","77","0","0","0","77","77","0","77","0","NA","77","0","Mon 10 Jun 2019 11:41:15 AM PDT","500","1000","The main experiment item","yes","NA","ABX_v3.osexp","/home/ubuntu/Desktop/panara","no","no","mono","no","18","no","white","no","yes","768","23","53","/home/ubuntu/Desktop/panara/subject-104.csv","Jazzy James","3.1.3","4.2.3.wav","4.2.5.wav","2.2.5.wav","0","1","1","1","NA","729","2803","729","NA","8503894","space","2","1024","2","48000","-16","experiment","4.2.3.wav","2.2.5.wav","4.2.5.wav","104","even","8942864","8945361","8944861","8944123","8792532","NA","8941863","8946085","962","NA","NA","8941861","8946815","8817323","8941861","8504859","NA","8941864","965","New experiment","NA","0","0","0","yes","1024"
"undefined","undefined","undefined","undefined","black","no","legacy","0","uniform","undefined","undefined","undefined","78","78","157","78","78","NA","78","78","0","0","0","78","78","0","78","0","NA","78","0","Mon 10 Jun 2019 11:41:15 AM PDT","500","1000","The main experiment item","yes","NA","ABX_v3.osexp","/home/ubuntu/Desktop/panara","yes","no","mono","no","18","no","white","no","yes","768","24","53","/home/ubuntu/Desktop/panara/subject-104.csv","Jazzy James","3.1.3","1.2.5.wav","2.2.5.wav","2.2.3.wav","0","0","1","0","NA","743","2803","743","NA","8503894","space","2","1024","2","48000","-16","experiment","2.2.3.wav","1.2.5.wav","2.2.5.wav","104","even","8947995","8950508","8950008","8949286","8792532","NA","8946995","8951262","962","NA","NA","8946992","8952005","8817323","8946992","8504859","NA","8946995","965","New experiment","NA","0","0","0","yes","1024"
"undefined","undefined","undefined","undefined","black","no","legacy","0","uniform","undefined","undefined","undefined","79","79","159","79","79","NA","79","79","0","0","0","79","79","0","79","0","NA","79","0","Mon 10 Jun 2019 11:41:15 AM PDT","500","1000","The main experiment item","yes","NA","ABX_v3.osexp","/home/ubuntu/Desktop/panara","no","no","mono","no","18","no","white","no","yes","768","25","53","/home/ubuntu/Desktop/panara/subject-104.csv","Jazzy James","3.1.3","1.1.1.wav","1.1.3.wav","1.2.3.wav","0","1","1","1","NA","1795","2803","1795","NA","8503894","space","2","1024","2","48000","-16","experiment","1.1.1.wav","1.2.3.wav","1.1.3.wav","104","even","8953179","8955771","8955271","8954492","8792532","NA","8952179","8956545","962","NA","NA","8952176","8958341","8817323","8952176","8504859","NA","8952179","965","New experiment","NA","0","0","0","yes","1024"
"undefined","undefined","undefined","undefined","black","no","legacy","0","uniform","undefined","undefined","undefined","80","80","161","80","80","NA","80","80","0","0","0","80","80","0","80","0","NA","80","0","Mon 10 Jun 2019 11:41:15 AM PDT","500","1000","The main experiment item","yes","NA","ABX_v3.osexp","/home/ubuntu/Desktop/panara","no","no","mono","no","18","no","white","no","yes","768","26","53","/home/ubuntu/Desktop/panara/subject-104.csv","Jazzy James","3.1.3","3.1.3.wav","1.1.3.wav","1.1.5.wav","0","0","1","0","NA","1797","2803","1797","NA","8503894","space","2","1024","2","48000","-16","experiment","3.1.3.wav","1.1.5.wav","1.1.3.wav","104","even","8959526","8962064","8961564","8960784","8792532","NA","8958525","8962839","962","NA","NA","8958523","8964637","8817323","8958523","8504859","NA","8958526","965","New experiment","NA","0","0","0","yes","1024"
"undefined","undefined","undefined","undefined","black","no","legacy","0","uniform","undefined","undefined","undefined","81","81","163","81","81","NA","81","81","0","0","0","81","81","0","81","0","NA","81","0","Mon 10 Jun 2019 11:41:15 AM PDT","500","1000","The main experiment item","yes","NA","ABX_v3.osexp","/home/ubuntu/Desktop/panara","no","no","mono","no","18","no","white","no","yes","768","27","53","/home/ubuntu/Desktop/panara/subject-104.csv","Jazzy James","3.1.3","4.1.3.wav","3.1.3.wav","3.1.5.wav","0","0","1","0","NA","681","2803","681","NA","8503894","space","2","1024","2","48000","-16","experiment","4.1.3.wav","3.1.5.wav","3.1.3.wav","104","even","8965810","8968285","8967785","8967034","8792532","NA","8964810","8969067","962","NA","NA","8964807","8969748","8817323","8964807","8504859","NA","8964810","965","New experiment","NA","0","0","0","yes","1024"
"undefined","undefined","undefined","undefined","black","no","legacy","0","uniform","undefined","undefined","undefined","82","82","165","82","82","NA","82","82","0","0","0","82","82","0","82","0","NA","82","0","Mon 10 Jun 2019 11:41:15 AM PDT","500","1000","The main experiment item","yes","NA","ABX_v3.osexp","/home/ubuntu/Desktop/panara","yes","no","mono","no","18","no","white","no","yes","768","28","53","/home/ubuntu/Desktop/panara/subject-104.csv","Jazzy James","3.1.3","2.1.3.wav","2.1.1.wav","2.2.1.wav","0","1","1","1","NA","955","2803","955","NA","8503894","space","2","1024","2","48000","-16","experiment","2.2.1.wav","2.1.3.wav","2.1.1.wav","104","even","8970926","8973427","8972927","8972177","8792532","NA","8969926","8974152","962","NA","NA","8969924","8975108","8817323","8969923","8504859","NA","8969926","965","New experiment","NA","0","0","0","yes","1024"
"undefined","undefined","undefined","undefined","black","no","legacy","0","uniform","undefined","undefined","undefined","83","83","167","83","83","NA","83","83","0","0","0","83","83","0","83","0","NA","83","0","Mon 10 Jun 2019 11:41:15 AM PDT","500","1000","The main experiment item","yes","NA","ABX_v3.osexp","/home/ubuntu/Desktop/panara","yes","no","mono","no","18","no","white","no","yes","768","29","53","/home/ubuntu/Desktop/panara/subject-104.csv","Jazzy James","3.1.3","2.1.3.wav","2.1.1.wav","4.1.1.wav","0","0","1","0","NA","1686","2803","1686","NA","8503894","space","2","1024","2","48000","-16","experiment","4.1.1.wav","2.1.3.wav","2.1.1.wav","104","even","8976295","8978794","8978294","8977542","8792532","NA","8975294","8979549","962","NA","NA","8975292","8981236","8817323","8975291","8504859","NA","8975295","965","New experiment","NA","0","0","0","yes","1024"
"undefined","undefined","undefined","undefined","black","no","legacy","0","uniform","undefined","undefined","undefined","84","84","169","84","84","NA","84","84","0","0","0","84","84","0","84","0","NA","84","0","Mon 10 Jun 2019 11:41:15 AM PDT","500","1000","The main experiment item","yes","NA","ABX_v3.osexp","/home/ubuntu/Desktop/panara","no","no","mono","no","18","no","white","no","yes","768","30","53","/home/ubuntu/Desktop/panara/subject-104.csv","Jazzy James","3.1.3","4.2.1.wav","3.2.1.wav","3.2.3.wav","0","0","1","0","NA","665","2803","665","NA","8503894","space","2","1024","2","48000","-16","experiment","4.2.1.wav","3.2.3.wav","3.2.1.wav","104","even","8982406","8984895","8984395","8983630","8792532","NA","8981406","8985650","962","NA","NA","8981404","8986315","8817323","8981404","8504859","NA","8981406","965","New experiment","NA","0","0","0","yes","1024"
"undefined","undefined","undefined","undefined","black","no","legacy","0","uniform","undefined","undefined","undefined","85","85","171","85","85","NA","85","85","0","0","0","85","85","0","85","0","NA","85","0","Mon 10 Jun 2019 11:41:15 AM PDT","500","1000","The main experiment item","yes","NA","ABX_v3.osexp","/home/ubuntu/Desktop/panara","no","no","mono","no","18","no","white","no","yes","768","31","53","/home/ubuntu/Desktop/panara/subject-104.csv","Jazzy James","3.1.3","3.1.1.wav","4.1.1.wav","4.1.3.wav","0","1","1","1","NA","1101","2803","1101","NA","8503894","space","2","1024","2","48000","-16","experiment","3.1.1.wav","4.1.3.wav","4.1.1.wav","104","even","8987462","8989929","8989429","8988709","8792532","NA","8986462","8990685","962","NA","NA","8986459","8991787","8817323","8986459","8504859","NA","8986462","965","New experiment","NA","0","0","0","yes","1024"
"undefined","undefined","undefined","undefined","black","no","legacy","0","uniform","undefined","undefined","undefined","86","86","173","86","86","NA","86","86","0","0","0","86","86","0","86","0","NA","86","0","Mon 10 Jun 2019 11:41:15 AM PDT","500","1000","The main experiment item","yes","NA","ABX_v3.osexp","/home/ubuntu/Desktop/panara","yes","no","mono","no","18","no","white","no","yes","768","32","53","/home/ubuntu/Desktop/panara/subject-104.csv","Jazzy James","3.1.3","4.2.3.wav","4.2.1.wav","3.2.1.wav","0","1","1","1","NA","1315","2803","1315","NA","8503894","space","2","1024","2","48000","-16","experiment","3.2.1.wav","4.2.3.wav","4.2.1.wav","104","even","8992950","8995470","8994970","8994217","8792532","NA","8991949","8996223","962","NA","NA","8991946","8997538","8817323","8991946","8504859","NA","8991950","965","New experiment","NA","0","0","0","yes","1024"
"undefined","undefined","undefined","undefined","black","no","legacy","0","uniform","undefined","undefined","undefined","87","87","175","87","87","NA","87","87","0","0","0","87","87","0","87","0","NA","87","0","Mon 10 Jun 2019 11:41:15 AM PDT","500","1000","The main experiment item","yes","NA","ABX_v3.osexp","/home/ubuntu/Desktop/panara","yes","no","mono","no","18","no","white","no","yes","768","33","53","/home/ubuntu/Desktop/panara/subject-104.csv","Jazzy James","3.1.3","3.2.4.wav","3.1.4.wav","3.1.2.wav","0","1","1","1","NA","832","2803","832","NA","8503894","space","2","1024","2","48000","-16","experiment","3.1.2.wav","3.2.4.wav","3.1.4.wav","104","even","8998701","9001235","9000735","8999955","8792532","NA","8997701","9002018","962","NA","NA","8997698","9002851","8817323","8997698","8504859","NA","8997701","965","New experiment","NA","0","0","0","yes","1024"
"undefined","undefined","undefined","undefined","black","no","legacy","0","uniform","undefined","undefined","undefined","88","88","177","88","88","NA","88","88","0","0","0","88","88","0","88","0","NA","88","0","Mon 10 Jun 2019 11:41:15 AM PDT","500","1000","The main experiment item","yes","NA","ABX_v3.osexp","/home/ubuntu/Desktop/panara","no","no","mono","no","18","no","white","no","yes","768","34","53","/home/ubuntu/Desktop/panara/subject-104.csv","Jazzy James","3.1.3","3.2.3.wav","3.2.5.wav","1.2.5.wav","0","0","1","0","NA","650","2803","650","NA","8503894","space","2","1024","2","48000","-16","experiment","3.2.3.wav","1.2.5.wav","3.2.5.wav","104","even","9004013","9006554","9006054","9005274","8792532","NA","9003012","9007336","962","NA","NA","9003010","9007987","8817323","9003010","8504859","NA","9003013","965","New experiment","NA","0","0","0","yes","1024"
"undefined","undefined","undefined","undefined","black","no","legacy","0","uniform","undefined","undefined","undefined","89","89","179","89","89","NA","89","89","0","0","0","89","89","0","89","0","NA","89","0","Mon 10 Jun 2019 11:41:15 AM PDT","500","1000","The main experiment item","yes","NA","ABX_v3.osexp","/home/ubuntu/Desktop/panara","yes","no","mono","no","18","no","white","no","yes","768","35","53","/home/ubuntu/Desktop/panara/subject-104.csv","Jazzy James","3.1.3","1.1.3.wav","1.2.3.wav","1.2.1.wav","0","1","1","1","NA","964","2803","964","NA","8503894","space","2","1024","2","48000","-16","experiment","1.2.1.wav","1.1.3.wav","1.2.3.wav","104","even","9009147","9011704","9011204","9010425","8792532","NA","9008147","9012477","962","NA","NA","9008144","9013441","8817323","9008144","8504859","NA","9008147","965","New experiment","NA","0","0","0","yes","1024"
"undefined","undefined","undefined","undefined","black","no","legacy","0","uniform","undefined","undefined","undefined","90","90","181","90","90","NA","90","90","0","0","0","90","90","0","90","0","NA","90","0","Mon 10 Jun 2019 11:41:15 AM PDT","500","1000","The main experiment item","yes","NA","ABX_v3.osexp","/home/ubuntu/Desktop/panara","no","no","mono","no","18","no","white","no","yes","768","36","53","/home/ubuntu/Desktop/panara/subject-104.csv","Jazzy James","3.1.3","1.2.2.wav","1.2.4.wav","3.2.4.wav","0","1","1","1","NA","785","2803","785","NA","8503894","space","2","1024","2","48000","-16","experiment","1.2.2.wav","3.2.4.wav","1.2.4.wav","104","even","9014603","9017164","9016664","9015890","8792532","NA","9013603","9017919","962","NA","NA","9013600","9018705","8817323","9013600","8504859","NA","9013603","965","New experiment","NA","0","0","0","yes","1024"
"undefined","undefined","undefined","undefined","black","no","legacy","0","uniform","undefined","undefined","undefined","91","91","183","91","91","NA","91","91","0","0","0","91","91","0","91","0","NA","91","0","Mon 10 Jun 2019 11:41:15 AM PDT","500","1000","The main experiment item","yes","NA","ABX_v3.osexp","/home/ubuntu/Desktop/panara","yes","no","mono","no","18","no","white","no","yes","768","37","53","/home/ubuntu/Desktop/panara/subject-104.csv","Jazzy James","3.1.3","3.1.5.wav","3.2.5.wav","3.2.3.wav","0","0","1","0","NA","1173","2803","1173","NA","8503894","space","2","1024","2","48000","-16","experiment","3.2.3.wav","3.1.5.wav","3.2.5.wav","104","even","9019881","9022447","9021947","9021166","8792532","NA","9018881","9023195","962","NA","NA","9018878","9024369","8817323","9018878","8504859","NA","9018881","965","New experiment","NA","0","0","0","yes","1024"
"undefined","undefined","undefined","undefined","black","no","legacy","0","uniform","undefined","undefined","undefined","92","92","185","92","92","NA","92","92","0","0","0","92","92","0","92","0","NA","92","0","Mon 10 Jun 2019 11:41:15 AM PDT","500","1000","The main experiment item","yes","NA","ABX_v3.osexp","/home/ubuntu/Desktop/panara","no","no","mono","no","18","no","white","no","yes","768","38","53","/home/ubuntu/Desktop/panara/subject-104.csv","Jazzy James","3.1.3","3.1.2.wav","3.1.4.wav","4.1.4.wav","0","1","1","1","NA","833","2803","833","NA","8503894","space","2","1024","2","48000","-16","experiment","3.1.2.wav","4.1.4.wav","3.1.4.wav","104","even","9025522","9028065","9027565","9026806","8792532","NA","9024521","9028783","962","NA","NA","9024519","9029616","8817323","9024519","8504859","NA","9024522","965","New experiment","NA","0","0","0","yes","1024"
"undefined","undefined","undefined","undefined","black","no","legacy","0","uniform","undefined","undefined","undefined","93","93","187","93","93","NA","93","93","0","0","0","93","93","0","93","0","NA","93","0","Mon 10 Jun 2019 11:41:15 AM PDT","500","1000","The main experiment item","yes","NA","ABX_v3.osexp","/home/ubuntu/Desktop/panara","no","no","mono","no","18","no","white","no","yes","768","39","53","/home/ubuntu/Desktop/panara/subject-104.csv","Jazzy James","3.1.3","3.2.3.wav","4.2.3.wav","4.2.5.wav","0","0","1","0","NA","785","2803","785","NA","8503894","space","2","1024","2","48000","-16","experiment","3.2.3.wav","4.2.5.wav","4.2.3.wav","104","even","9030771","9033254","9032754","9032012","8792532","NA","9029771","9033974","962","NA","NA","9029768","9034760","8817323","9029768","8504859","NA","9029771","965","New experiment","NA","0","0","0","yes","1024"
"undefined","undefined","undefined","undefined","black","no","legacy","0","uniform","undefined","undefined","undefined","94","94","189","94","94","NA","94","94","0","0","0","94","94","0","94","0","NA","94","0","Mon 10 Jun 2019 11:41:15 AM PDT","500","1000","The main experiment item","yes","NA","ABX_v3.osexp","/home/ubuntu/Desktop/panara","no","no","mono","no","18","no","white","no","yes","768","40","53","/home/ubuntu/Desktop/panara/subject-104.csv","Jazzy James","3.1.3","3.1.2.wav","3.2.2.wav","3.2.4.wav","0","0","1","0","NA","1690","2803","1690","NA","8503894","space","2","1024","2","48000","-16","experiment","3.1.2.wav","3.2.4.wav","3.2.2.wav","104","even","9035928","9038476","9037976","9037195","8792532","NA","9034928","9039230","962","NA","NA","9034925","9040921","8817323","9034925","8504859","NA","9034928","965","New experiment","NA","0","0","0","yes","1024"
"undefined","undefined","undefined","undefined","black","no","legacy","0","uniform","undefined","undefined","undefined","95","95","191","95","95","NA","95","95","0","0","0","95","95","0","95","0","NA","95","0","Mon 10 Jun 2019 11:41:15 AM PDT","500","1000","The main experiment item","yes","NA","ABX_v3.osexp","/home/ubuntu/Desktop/panara","no","no","mono","no","18","no","white","no","yes","768","41","53","/home/ubuntu/Desktop/panara/subject-104.csv","Jazzy James","3.1.3","2.1.2.wav","2.1.4.wav","1.1.4.wav","0","0","1","0","NA","1428","2803","1428","NA","8503894","space","2","1024","2","48000","-16","experiment","2.1.2.wav","1.1.4.wav","2.1.4.wav","104","even","9042082","9044582","9044082","9043331","8792532","NA","9041082","9045364","962","NA","NA","9041080","9046792","8817323","9041080","8504859","NA","9041082","965","New experiment","NA","0","0","0","yes","1024"
"undefined","undefined","undefined","undefined","black","no","legacy","0","uniform","undefined","undefined","undefined","96","96","193","96","96","NA","96","96","0","0","0","96","96","0","96","0","NA","96","0","Mon 10 Jun 2019 11:41:15 AM PDT","500","1000","The main experiment item","yes","NA","ABX_v3.osexp","/home/ubuntu/Desktop/panara","no","no","mono","no","18","no","white","no","yes","768","42","53","/home/ubuntu/Desktop/panara/subject-104.csv","Jazzy James","3.1.3","1.2.1.wav","1.2.3.wav","2.2.3.wav","0","1","1","1","NA","692","2803","692","NA","8503894","space","2","1024","2","48000","-16","experiment","1.2.1.wav","2.2.3.wav","1.2.3.wav","104","even","9047967","9050512","9050012","9049240","8792532","NA","9046967","9051267","962","NA","NA","9046964","9051960","8817323","9046964","8504859","NA","9046967","965","New experiment","NA","0","0","0","yes","1024"
"undefined","undefined","undefined","undefined","black","no","legacy","0","uniform","undefined","undefined","undefined","97","97","195","97","97","NA","97","97","0","0","0","97","97","0","97","0","NA","97","0","Mon 10 Jun 2019 11:41:15 AM PDT","500","1000","The main experiment item","yes","NA","ABX_v3.osexp","/home/ubuntu/Desktop/panara","no","no","mono","no","18","no","white","no","yes","768","43","53","/home/ubuntu/Desktop/panara/subject-104.csv","Jazzy James","3.1.3","3.1.1.wav","3.1.3.wav","1.1.3.wav","0","1","1","1","NA","734","2803","734","NA","8503894","space","2","1024","2","48000","-16","experiment","3.1.1.wav","1.1.3.wav","3.1.3.wav","104","even","9053116","9055632","9055131","9054382","8792532","NA","9052116","9056408","962","NA","NA","9052113","9057143","8817323","9052113","8504859","NA","9052116","965","New experiment","NA","0","0","0","yes","1024"
"undefined","undefined","undefined","undefined","black","no","legacy","0","uniform","undefined","undefined","undefined","98","98","197","98","98","NA","98","98","0","0","0","98","98","0","98","0","NA","98","0","Mon 10 Jun 2019 11:41:15 AM PDT","500","1000","The main experiment item","yes","NA","ABX_v3.osexp","/home/ubuntu/Desktop/panara","yes","no","mono","no","18","no","white","no","yes","768","44","53","/home/ubuntu/Desktop/panara/subject-104.csv","Jazzy James","3.1.3","4.2.4.wav","4.2.2.wav","4.1.2.wav","0","0","1","0","NA","595","2803","595","NA","8503894","space","2","1024","2","48000","-16","experiment","4.1.2.wav","4.2.4.wav","4.2.2.wav","104","even","9058307","9060752","9060251","9059535","8792532","NA","9057307","9061507","962","NA","NA","9057304","9062102","8817323","9057304","8504859","NA","9057307","965","New experiment","NA","0","0","0","yes","1024"
"undefined","undefined","undefined","undefined","black","no","legacy","0","uniform","undefined","undefined","undefined","99","99","199","99","99","NA","99","99","0","0","0","99","99","0","99","0","NA","99","0","Mon 10 Jun 2019 11:41:15 AM PDT","500","1000","The main experiment item","yes","NA","ABX_v3.osexp","/home/ubuntu/Desktop/panara","yes","no","mono","no","18","no","white","no","yes","768","45","53","/home/ubuntu/Desktop/panara/subject-104.csv","Jazzy James","3.1.3","2.1.4.wav","2.2.4.wav","2.2.2.wav","0","0","1","0","NA","383","2803","383","NA","8503894","space","2","1024","2","48000","-16","experiment","2.2.2.wav","2.1.4.wav","2.2.4.wav","104","even","9063281","9065764","9065264","9064542","8792532","NA","9062280","9066519","962","NA","NA","9062277","9066903","8817323","9062277","8504859","NA","9062281","965","New experiment","NA","0","0","0","yes","1024"
"undefined","undefined","undefined","undefined","black","no","legacy","0","uniform","undefined","undefined","undefined","100","100","201","100","100","NA","100","100","0","0","0","100","100","0","100","0","NA","100","0","Mon 10 Jun 2019 11:41:15 AM PDT","500","1000","The main experiment item","yes","NA","ABX_v3.osexp","/home/ubuntu/Desktop/panara","no","no","mono","no","18","no","white","no","yes","768","46","53","/home/ubuntu/Desktop/panara/subject-104.csv","Jazzy James","3.1.3","4.1.3.wav","2.1.3.wav","2.1.5.wav","0","0","0","0","NA","556","2978","556","NA","8503894","space","2","1024","2","48000","-16","experiment","4.1.3.wav","2.1.5.wav","2.1.3.wav","104","even","9071065","9073538","9073038","9072286","9067083","NA","9070065","9074290","962","NA","NA","9067081","9074847","8817323","9067081","8504859","NA","9070065","965","New experiment","NA","0","0","0","yes","1024"
"undefined","undefined","undefined","undefined","black","no","legacy","0","uniform","undefined","undefined","undefined","101","101","203","101","101","NA","101","101","0","0","0","101","101","0","101","0","NA","101","0","Mon 10 Jun 2019 11:41:15 AM PDT","500","1000","The main experiment item","yes","NA","ABX_v3.osexp","/home/ubuntu/Desktop/panara","no","no","mono","no","18","no","white","no","yes","768","47","53","/home/ubuntu/Desktop/panara/subject-104.csv","Jazzy James","3.1.3","4.2.3.wav","4.2.5.wav","4.1.5.wav","0","1","0","1","NA","365","2978","365","NA","8503894","space","2","1024","2","48000","-16","experiment","4.2.3.wav","4.1.5.wav","4.2.5.wav","104","even","9076028","9078515","9078015","9077292","9067083","NA","9075028","9079239","962","NA","NA","9075025","9079605","8817323","9075025","8504859","NA","9075028","965","New experiment","NA","0","0","0","yes","1024"
"undefined","undefined","undefined","undefined","black","no","legacy","0","uniform","undefined","undefined","undefined","102","102","205","102","102","NA","102","102","0","0","0","102","102","0","102","0","NA","102","0","Mon 10 Jun 2019 11:41:15 AM PDT","500","1000","The main experiment item","yes","NA","ABX_v3.osexp","/home/ubuntu/Desktop/panara","no","no","mono","no","18","no","white","no","yes","768","48","53","/home/ubuntu/Desktop/panara/subject-104.csv","Jazzy James","3.1.3","3.1.1.wav","3.1.3.wav","4.1.3.wav","0","1","0","1","NA","552","2978","552","NA","8503894","space","2","1024","2","48000","-16","experiment","3.1.1.wav","4.1.3.wav","3.1.3.wav","104","even","9080763","9083264","9082764","9082013","9067083","NA","9079763","9084012","962","NA","NA","9079761","9084565","8817323","9079761","8504859","NA","9079763","965","New experiment","NA","0","0","0","yes","1024"
"undefined","undefined","undefined","undefined","black","no","legacy","0","uniform","undefined","undefined","undefined","103","103","207","103","103","NA","103","103","0","0","0","103","103","0","103","0","NA","103","0","Mon 10 Jun 2019 11:41:15 AM PDT","500","1000","The main experiment item","yes","NA","ABX_v3.osexp","/home/ubuntu/Desktop/panara","no","no","mono","no","18","no","white","no","yes","768","49","53","/home/ubuntu/Desktop/panara/subject-104.csv","Jazzy James","3.1.3","2.2.1.wav","2.2.3.wav","4.2.3.wav","0","1","0","1","NA","618","2978","618","NA","8503894","space","2","1024","2","48000","-16","experiment","2.2.1.wav","4.2.3.wav","2.2.3.wav","104","even","9085715","9088175","9087675","9086926","9067083","NA","9084715","9088930","962","NA","NA","9084713","9089549","8817323","9084713","8504859","NA","9084715","965","New experiment","NA","0","0","0","yes","1024"
"undefined","undefined","undefined","undefined","black","no","legacy","0","uniform","undefined","undefined","undefined","104","104","209","104","104","NA","104","104","0","0","0","104","104","0","104","0","NA","104","0","Mon 10 Jun 2019 11:41:15 AM PDT","500","1000","The main experiment item","yes","NA","ABX_v3.osexp","/home/ubuntu/Desktop/panara","yes","no","mono","no","18","no","white","no","yes","768","50","53","/home/ubuntu/Desktop/panara/subject-104.csv","Jazzy James","3.1.3","4.1.4.wav","2.1.4.wav","2.1.2.wav","0","0","0","0","NA","467","2978","467","NA","8503894","space","2","1024","2","48000","-16","experiment","2.1.2.wav","4.1.4.wav","2.1.4.wav","104","even","9090692","9093174","9092674","9091922","9067083","NA","9089692","9093929","962","NA","NA","9089689","9094396","8817323","9089689","8504859","NA","9089692","965","New experiment","NA","0","0","0","yes","1024"
"undefined","undefined","undefined","undefined","black","no","legacy","0","uniform","undefined","undefined","undefined","105","105","211","105","105","NA","105","105","0","0","0","105","105","0","105","0","NA","105","0","Mon 10 Jun 2019 11:41:15 AM PDT","500","1000","The main experiment item","yes","NA","ABX_v3.osexp","/home/ubuntu/Desktop/panara","no","no","mono","no","18","no","white","no","yes","768","51","53","/home/ubuntu/Desktop/panara/subject-104.csv","Jazzy James","3.1.3","4.1.1.wav","4.2.1.wav","4.2.3.wav","0","1","0","1","NA","1551","2978","1551","NA","8503894","space","2","1024","2","48000","-16","experiment","4.1.1.wav","4.2.3.wav","4.2.1.wav","104","even","9095543","9098002","9097502","9096780","9067083","NA","9094542","9098756","962","NA","NA","9094539","9100308","8817323","9094539","8504859","NA","9094542","965","New experiment","NA","0","0","0","yes","1024"
"undefined","undefined","undefined","undefined","black","no","legacy","0","uniform","undefined","undefined","undefined","106","106","213","106","106","NA","106","106","0","0","0","106","106","0","106","0","NA","106","0","Mon 10 Jun 2019 11:41:15 AM PDT","500","1000","The main experiment item","yes","NA","ABX_v3.osexp","/home/ubuntu/Desktop/panara","yes","no","mono","no","18","no","white","no","yes","768","52","53","/home/ubuntu/Desktop/panara/subject-104.csv","Jazzy James","3.1.3","3.2.5.wav","3.2.3.wav","1.2.3.wav","0","1","0","1","NA","671","2978","671","NA","8503894","space","2","1024","2","48000","-16","experiment","1.2.3.wav","3.2.5.wav","3.2.3.wav","104","even","9101457","9103990","9103490","9102737","9067083","NA","9100457","9104772","962","NA","NA","9100455","9105444","8817323","9100455","8504859","NA","9100457","965","New experiment","NA","0","0","0","yes","1024"
"undefined","undefined","undefined","undefined","black","no","legacy","0","uniform","undefined","undefined","undefined","107","107","215","107","107","NA","107","107","0","0","0","107","107","0","107","0","NA","107","0","Mon 10 Jun 2019 11:41:15 AM PDT","500","1000","The main experiment item","yes","NA","ABX_v3.osexp","/home/ubuntu/Desktop/panara","no","no","mono","no","18","no","white","no","yes","768","53","53","/home/ubuntu/Desktop/panara/subject-104.csv","Jazzy James","3.1.3","1.1.3.wav","1.1.5.wav","1.2.5.wav","0","0","0","0","NA","452","2978","452","NA","8503894","space","2","1024","2","48000","-16","experiment","1.1.3.wav","1.2.5.wav","1.1.5.wav","104","even","9106630","9109196","9108696","9107915","9067083","NA","9105630","9109999","962","NA","NA","9105627","9110451","8817323","9105627","8504859","NA","9105630","965","New experiment","NA","0","0","0","yes","1024"
"undefined","undefined","undefined","undefined","black","no","legacy","0","uniform","undefined","undefined","undefined","108","108","217","108","108","NA","108","108","0","0","0","108","108","0","108","0","NA","108","0","Mon 10 Jun 2019 11:41:15 AM PDT","500","1000","The main experiment item","yes","NA","ABX_v3.osexp","/home/ubuntu/Desktop/panara","no","no","mono","no","18","no","white","no","yes","768","54","53","/home/ubuntu/Desktop/panara/subject-104.csv","Jazzy James","3.1.3","2.1.2.wav","1.1.2.wav","1.1.4.wav","0","0","0","0","NA","1140","2978","1140","NA","8503894","space","2","1024","2","48000","-16","experiment","2.1.2.wav","1.1.4.wav","1.1.2.wav","104","even","9111622","9114166","9113666","9112885","9067083","NA","9110622","9114942","962","NA","NA","9110619","9116083","8817323","9110619","8504859","NA","9110622","965","New experiment","NA","0","0","0","yes","1024"
"undefined","undefined","undefined","undefined","black","no","legacy","0","uniform","undefined","undefined","undefined","109","109","219","109","109","NA","109","109","0","0","0","109","109","0","109","0","NA","109","0","Mon 10 Jun 2019 11:41:15 AM PDT","500","1000","The main experiment item","yes","NA","ABX_v3.osexp","/home/ubuntu/Desktop/panara","yes","no","mono","no","18","no","white","no","yes","768","55","53","/home/ubuntu/Desktop/panara/subject-104.csv","Jazzy James","3.1.3","2.2.4.wav","2.2.2.wav","1.2.2.wav","0","1","0","1","NA","962","2978","962","NA","8503894","space","2","1024","2","48000","-16","experiment","1.2.2.wav","2.2.4.wav","2.2.2.wav","104","even","9117262","9119711","9119211","9118482","9067083","NA","9116262","9120488","962","NA","NA","9116259","9121451","8817323","9116259","8504859","NA","9116262","965","New experiment","NA","0","0","0","yes","1024"
"undefined","undefined","undefined","undefined","black","no","legacy","0","uniform","undefined","undefined","undefined","110","110","221","110","110","NA","110","110","0","0","0","110","110","0","110","0","NA","110","0","Mon 10 Jun 2019 11:41:15 AM PDT","500","1000","The main experiment item","yes","NA","ABX_v3.osexp","/home/ubuntu/Desktop/panara","no","no","mono","no","18","no","white","no","yes","768","56","53","/home/ubuntu/Desktop/panara/subject-104.csv","Jazzy James","3.1.3","3.1.2.wav","1.1.2.wav","1.1.4.wav","0","0","0","0","NA","462","2978","462","NA","8503894","space","2","1024","2","48000","-16","experiment","3.1.2.wav","1.1.4.wav","1.1.2.wav","104","even","9122629","9125193","9124693","9123914","9067083","NA","9121629","9125979","962","NA","NA","9121626","9126442","8817323","9121626","8504859","NA","9121629","965","New experiment","NA","0","0","0","yes","1024"
"undefined","undefined","undefined","undefined","black","no","legacy","0","uniform","undefined","undefined","undefined","111","111","223","111","111","NA","111","111","0","0","0","111","111","0","111","0","NA","111","0","Mon 10 Jun 2019 11:41:15 AM PDT","500","1000","The main experiment item","yes","NA","ABX_v3.osexp","/home/ubuntu/Desktop/panara","no","no","mono","no","18","no","white","no","yes","768","57","53","/home/ubuntu/Desktop/panara/subject-104.csv","Jazzy James","3.1.3","1.2.1.wav","1.1.1.wav","1.1.3.wav","0","0","0","0","NA","1891","2978","1891","NA","8503894","space","2","1024","2","48000","-16","experiment","1.2.1.wav","1.1.3.wav","1.1.1.wav","104","even","9127603","9130144","9129644","9128877","9067083","NA","9126603","9130927","962","NA","NA","9126600","9132819","8817323","9126600","8504859","NA","9126603","965","New experiment","NA","0","0","0","yes","1024"
