"acc","accuracy","average_response_time","avg_rt","background","bidi","canvas_backend","compensation","coordinates","correct","correct_display_selecting","correct_welcome","count_A","count_B","count_ISI","count_X","count_break","count_determine_break","count_display_listening","count_display_selecting","count_experiment","count_finished","count_getting_started","count_new_inline_script","count_new_logger","count_new_loop","count_new_sequence","count_plain_block","count_setup_breaks","count_wait_nextitem","count_welcome","datetime","delay_ISI","delay_wait_nextitem","description","disable_garbage_collection","empty_column","experiment_file","experiment_path","flip_order","font_bold","font_family","font_italic","font_size","font_underline","foreground","form_clicks","fullscreen","height","live_row","live_row_plain_block","logfile","opensesame_codename","opensesame_version","play1","play2","play3","repeat_cycle","response","response_break","response_display_selecting","response_finished","response_time","response_time_break","response_time_display_selecting","response_time_finished","response_time_welcome","response_welcome","round_decimals","sound_buf_size","sound_channels","sound_freq","sound_sample_size","start","stimA","stimB","stimX","subject_nr","subject_parity","time_A","time_B","time_ISI","time_X","time_break","time_determine_break","time_display_listening","time_display_selecting","time_experiment","time_finished","time_getting_started","time_new_inline_script","time_new_logger","time_new_loop","time_new_sequence","time_plain_block","time_setup_breaks","time_wait_nextitem","time_welcome","title","to_break","total_correct","total_response_time","total_responses","uniform_coordinates","width"
"undefined","undefined","undefined","undefined","black","no","legacy","0","uniform","undefined","undefined","undefined","0","0","1","0","0","NA","0","0","0","0","0","0","0","0","0","0","NA","0","0","Tue 23 Jul 2019 03:02:10 PM PDT","500","1000","The main experiment item","yes","NA","ABX_v3.osexp","/home/ubuntu/Desktop/panara","yes","no","mono","no","18","no","white","no","yes","768","0","0","/home/ubuntu/Desktop/panara/subject-112.csv","Jazzy James","3.1.3","4.2.3.wav","4.2.1.wav","4.2.1.wav","0","1","NA","1","NA","4890","NA","4890","NA","424727","return","2","1024","2","48000","-16","experiment","4.2.1.wav","4.2.3.wav","4.2.1.wav","112","even","426575","429073","428573","427821","NA","NA","425574","429813","766","NA","NA","425572","434703","NA","425572","425496","NA","425575","768","New experiment","NA","0","0","0","yes","1024"
"undefined","undefined","undefined","undefined","black","no","legacy","0","uniform","undefined","undefined","undefined","1","1","3","1","1","NA","1","1","0","0","0","1","1","0","1","0","NA","1","0","Tue 23 Jul 2019 03:02:10 PM PDT","500","1000","The main experiment item","yes","NA","ABX_v3.osexp","/home/ubuntu/Desktop/panara","no","no","mono","no","18","no","white","no","yes","768","1","1","/home/ubuntu/Desktop/panara/subject-112.csv","Jazzy James","3.1.3","4.1.3.wav","4.1.3.wav","4.1.5.wav","0","1","NA","1","NA","6152","NA","6152","NA","424727","return","2","1024","2","48000","-16","experiment","4.1.3.wav","4.1.5.wav","4.1.3.wav","112","even","435971","438438","437938","437222","NA","NA","434971","439150","766","NA","NA","434968","445302","NA","434968","425496","NA","434971","768","New experiment","NA","0","0","0","yes","1024"
"undefined","undefined","undefined","undefined","black","no","legacy","0","uniform","undefined","undefined","undefined","2","2","5","2","2","NA","2","2","0","0","0","2","2","0","2","0","NA","2","0","Tue 23 Jul 2019 03:02:10 PM PDT","500","1000","The main experiment item","yes","NA","ABX_v3.osexp","/home/ubuntu/Desktop/panara","yes","no","mono","no","18","no","white","no","yes","768","2","2","/home/ubuntu/Desktop/panara/subject-112.csv","Jazzy James","3.1.3","3.2.4.wav","3.2.4.wav","3.2.2.wav","0","0","NA","0","NA","4156","NA","4156","NA","424727","return","2","1024","2","48000","-16","experiment","3.2.2.wav","3.2.4.wav","3.2.4.wav","112","even","446489","448980","448480","447745","NA","NA","445489","449737","766","NA","NA","445486","453894","NA","445486","425496","NA","445489","768","New experiment","NA","0","0","0","yes","1024"
"undefined","undefined","undefined","undefined","black","no","legacy","0","uniform","undefined","undefined","undefined","3","3","7","3","3","NA","3","3","0","0","0","3","3","0","3","0","NA","3","0","Tue 23 Jul 2019 03:02:10 PM PDT","500","1000","The main experiment item","yes","NA","ABX_v3.osexp","/home/ubuntu/Desktop/panara","no","no","mono","no","18","no","white","no","yes","768","3","3","/home/ubuntu/Desktop/panara/subject-112.csv","Jazzy James","3.1.3","3.1.1.wav","3.1.1.wav","3.1.3.wav","0","0","NA","0","NA","1394","NA","1394","NA","424727","return","2","1024","2","48000","-16","experiment","3.1.1.wav","3.1.3.wav","3.1.1.wav","112","even","455111","457610","457110","456360","NA","NA","454110","458363","766","NA","NA","454108","459757","NA","454108","425496","NA","454110","768","New experiment","NA","0","0","0","yes","1024"
"undefined","undefined","undefined","undefined","black","no","legacy","0","uniform","undefined","undefined","undefined","4","4","9","4","4","NA","4","4","0","0","0","4","4","0","4","0","NA","4","0","Tue 23 Jul 2019 03:02:10 PM PDT","500","1000","The main experiment item","yes","NA","ABX_v3.osexp","/home/ubuntu/Desktop/panara","yes","no","mono","no","18","no","white","no","yes","768","4","4","/home/ubuntu/Desktop/panara/subject-112.csv","Jazzy James","3.1.3","3.1.5.wav","3.1.3.wav","3.1.3.wav","0","0","NA","0","NA","2105","NA","2105","NA","424727","return","2","1024","2","48000","-16","experiment","3.1.3.wav","3.1.5.wav","3.1.3.wav","112","even","460966","463827","463327","462576","NA","NA","459966","464580","766","NA","NA","459963","466685","NA","459963","425496","NA","459966","768","New experiment","NA","0","0","0","yes","1024"
"undefined","undefined","undefined","undefined","black","no","legacy","0","uniform","undefined","undefined","undefined","5","5","11","5","5","NA","5","5","0","0","0","5","5","0","5","0","NA","5","0","Tue 23 Jul 2019 03:02:10 PM PDT","500","1000","The main experiment item","yes","NA","ABX_v3.osexp","/home/ubuntu/Desktop/panara","no","no","mono","no","18","no","white","no","yes","768","5","5","/home/ubuntu/Desktop/panara/subject-112.csv","Jazzy James","3.1.3","1.1.2.wav","1.1.4.wav","1.1.4.wav","0","1","NA","1","NA","1433","NA","1433","NA","424727","return","2","1024","2","48000","-16","experiment","1.1.2.wav","1.1.4.wav","1.1.4.wav","112","even","467876","470453","469953","469181","NA","NA","466876","471235","766","NA","NA","466873","472669","NA","466873","425496","NA","466876","768","New experiment","NA","0","0","0","yes","1024"
"undefined","undefined","undefined","undefined","black","no","legacy","0","uniform","undefined","undefined","undefined","6","6","13","6","6","NA","6","6","0","0","0","6","6","0","6","0","NA","6","0","Tue 23 Jul 2019 03:02:10 PM PDT","500","1000","The main experiment item","yes","NA","ABX_v3.osexp","/home/ubuntu/Desktop/panara","no","no","mono","no","18","no","white","no","yes","768","6","6","/home/ubuntu/Desktop/panara/subject-112.csv","Jazzy James","3.1.3","2.2.1.wav","2.2.1.wav","2.2.3.wav","0","1","NA","1","NA","906","NA","906","NA","424727","return","2","1024","2","48000","-16","experiment","2.2.1.wav","2.2.3.wav","2.2.1.wav","112","even","473803","476256","475756","475034","NA","NA","472803","477010","766","NA","NA","472800","477916","NA","472800","425496","NA","472803","768","New experiment","NA","0","0","0","yes","1024"
"undefined","undefined","undefined","undefined","black","no","legacy","0","uniform","undefined","undefined","undefined","7","7","15","7","7","NA","7","7","0","0","0","7","7","0","7","0","NA","7","0","Tue 23 Jul 2019 03:02:10 PM PDT","500","1000","The main experiment item","yes","NA","ABX_v3.osexp","/home/ubuntu/Desktop/panara","yes","no","mono","no","18","no","white","no","yes","768","7","7","/home/ubuntu/Desktop/panara/subject-112.csv","Jazzy James","3.1.3","2.1.4.wav","2.1.4.wav","2.1.2.wav","0","0","NA","0","NA","606","NA","606","NA","424727","return","2","1024","2","48000","-16","experiment","2.1.2.wav","2.1.4.wav","2.1.4.wav","112","even","479106","481605","481105","480352","NA","NA","478105","482358","766","NA","NA","478103","482964","NA","478103","425496","NA","478105","768","New experiment","NA","0","0","0","yes","1024"
"undefined","undefined","undefined","undefined","black","no","legacy","0","uniform","undefined","undefined","undefined","8","8","17","8","8","NA","8","8","0","0","0","8","8","0","8","0","NA","8","0","Tue 23 Jul 2019 03:02:10 PM PDT","500","1000","The main experiment item","yes","NA","ABX_v3.osexp","/home/ubuntu/Desktop/panara","yes","no","mono","no","18","no","white","no","yes","768","8","8","/home/ubuntu/Desktop/panara/subject-112.csv","Jazzy James","3.1.3","1.2.5.wav","1.2.3.wav","1.2.3.wav","0","0","NA","0","NA","621","NA","621","NA","424727","return","2","1024","2","48000","-16","experiment","1.2.3.wav","1.2.5.wav","1.2.3.wav","112","even","484195","486750","486250","485471","NA","NA","483194","487533","766","NA","NA","483192","488155","NA","483192","425496","NA","483195","768","New experiment","NA","0","0","0","yes","1024"
"undefined","undefined","undefined","undefined","black","no","legacy","0","uniform","undefined","undefined","undefined","9","9","19","9","9","NA","9","9","0","0","0","9","9","0","9","0","NA","9","0","Tue 23 Jul 2019 03:02:10 PM PDT","500","1000","The main experiment item","yes","NA","ABX_v3.osexp","/home/ubuntu/Desktop/panara","yes","no","mono","no","18","no","white","no","yes","768","9","9","/home/ubuntu/Desktop/panara/subject-112.csv","Jazzy James","3.1.3","1.2.3.wav","1.2.1.wav","1.2.1.wav","0","0","NA","0","NA","765","NA","765","NA","424727","return","2","1024","2","48000","-16","experiment","1.2.1.wav","1.2.3.wav","1.2.1.wav","112","even","489286","491857","491357","490576","NA","NA","488286","492638","766","NA","NA","488284","493403","NA","488284","425496","NA","488286","768","New experiment","NA","0","0","0","yes","1024"
"undefined","undefined","undefined","undefined","black","no","legacy","0","uniform","undefined","undefined","undefined","10","10","21","10","10","NA","10","10","0","0","0","10","10","0","10","0","NA","10","0","Tue 23 Jul 2019 03:02:10 PM PDT","500","1000","The main experiment item","yes","NA","ABX_v3.osexp","/home/ubuntu/Desktop/panara","no","no","mono","no","18","no","white","no","yes","768","10","10","/home/ubuntu/Desktop/panara/subject-112.csv","Jazzy James","3.1.3","2.2.2.wav","2.2.4.wav","2.2.4.wav","0","1","NA","1","NA","1757","NA","1757","NA","424727","return","2","1024","2","48000","-16","experiment","2.2.2.wav","2.2.4.wav","2.2.4.wav","112","even","494570","497048","496548","495810","NA","NA","493570","497774","766","NA","NA","493567","499531","NA","493567","425496","NA","493570","768","New experiment","NA","0","0","0","yes","1024"
"undefined","undefined","undefined","undefined","black","no","legacy","0","uniform","undefined","undefined","undefined","11","11","23","11","11","NA","11","11","0","0","0","11","11","0","11","0","NA","11","0","Tue 23 Jul 2019 03:02:10 PM PDT","500","1000","The main experiment item","yes","NA","ABX_v3.osexp","/home/ubuntu/Desktop/panara","no","no","mono","no","18","no","white","no","yes","768","11","11","/home/ubuntu/Desktop/panara/subject-112.csv","Jazzy James","3.1.3","2.2.3.wav","2.2.5.wav","2.2.5.wav","0","0","NA","0","NA","868","NA","868","NA","424727","return","2","1024","2","48000","-16","experiment","2.2.3.wav","2.2.5.wav","2.2.5.wav","112","even","500733","503219","502719","501997","NA","NA","499732","503974","766","NA","NA","499730","504843","NA","499729","425496","NA","499733","768","New experiment","NA","0","0","0","yes","1024"
"undefined","undefined","undefined","undefined","black","no","legacy","0","uniform","undefined","undefined","undefined","12","12","25","12","12","NA","12","12","0","0","0","12","12","0","12","0","NA","12","0","Tue 23 Jul 2019 03:02:10 PM PDT","500","1000","The main experiment item","yes","NA","ABX_v3.osexp","/home/ubuntu/Desktop/panara","yes","no","mono","no","18","no","white","no","yes","768","12","12","/home/ubuntu/Desktop/panara/subject-112.csv","Jazzy James","3.1.3","2.1.5.wav","2.1.5.wav","2.1.3.wav","0","1","NA","1","NA","411","NA","411","NA","424727","return","2","1024","2","48000","-16","experiment","2.1.3.wav","2.1.5.wav","2.1.5.wav","112","even","506064","508581","508081","507330","NA","NA","505064","509335","766","NA","NA","505062","509746","NA","505062","425496","NA","505064","768","New experiment","NA","0","0","0","yes","1024"
"undefined","undefined","undefined","undefined","black","no","legacy","0","uniform","undefined","undefined","undefined","13","13","27","13","13","NA","13","13","0","0","0","13","13","0","13","0","NA","13","0","Tue 23 Jul 2019 03:02:10 PM PDT","500","1000","The main experiment item","yes","NA","ABX_v3.osexp","/home/ubuntu/Desktop/panara","yes","no","mono","no","18","no","white","no","yes","768","13","13","/home/ubuntu/Desktop/panara/subject-112.csv","Jazzy James","3.1.3","4.1.4.wav","4.1.4.wav","4.1.2.wav","0","1","NA","1","NA","928","NA","928","NA","424727","return","2","1024","2","48000","-16","experiment","4.1.2.wav","4.1.4.wav","4.1.4.wav","112","even","510985","513460","512960","512236","NA","NA","509984","514177","766","NA","NA","509981","515105","NA","509981","425496","NA","509984","768","New experiment","NA","0","0","0","yes","1024"
"undefined","undefined","undefined","undefined","black","no","legacy","0","uniform","undefined","undefined","undefined","14","14","29","14","14","NA","14","14","0","0","0","14","14","0","14","0","NA","14","0","Tue 23 Jul 2019 03:02:10 PM PDT","500","1000","The main experiment item","yes","NA","ABX_v3.osexp","/home/ubuntu/Desktop/panara","no","no","mono","no","18","no","white","no","yes","768","14","14","/home/ubuntu/Desktop/panara/subject-112.csv","Jazzy James","3.1.3","4.2.3.wav","4.2.3.wav","4.2.5.wav","0","0","NA","0","NA","1522","NA","1522","NA","424727","return","2","1024","2","48000","-16","experiment","4.2.3.wav","4.2.5.wav","4.2.3.wav","112","even","516284","518813","518313","517548","NA","NA","515284","519526","766","NA","NA","515281","521049","NA","515281","425496","NA","515284","768","New experiment","NA","0","0","0","yes","1024"
"undefined","undefined","undefined","undefined","black","no","legacy","0","uniform","undefined","undefined","undefined","15","15","31","15","15","NA","15","15","0","0","0","15","15","0","15","0","NA","15","0","Tue 23 Jul 2019 03:02:10 PM PDT","500","1000","The main experiment item","yes","NA","ABX_v3.osexp","/home/ubuntu/Desktop/panara","no","no","mono","no","18","no","white","no","yes","768","15","15","/home/ubuntu/Desktop/panara/subject-112.csv","Jazzy James","3.1.3","4.1.1.wav","4.1.1.wav","4.1.3.wav","0","0","NA","0","NA","1390","NA","1390","NA","424727","return","2","1024","2","48000","-16","experiment","4.1.1.wav","4.1.3.wav","4.1.1.wav","112","even","522241","524679","524178","523456","NA","NA","521240","525435","766","NA","NA","521238","526825","NA","521238","425496","NA","521241","768","New experiment","NA","0","0","0","yes","1024"
"undefined","undefined","undefined","undefined","black","no","legacy","0","uniform","undefined","undefined","undefined","16","16","33","16","16","NA","16","16","0","0","0","16","16","0","16","0","NA","16","0","Tue 23 Jul 2019 03:02:10 PM PDT","500","1000","The main experiment item","yes","NA","ABX_v3.osexp","/home/ubuntu/Desktop/panara","yes","no","mono","no","18","no","white","no","yes","768","16","16","/home/ubuntu/Desktop/panara/subject-112.csv","Jazzy James","3.1.3","3.1.5.wav","3.1.5.wav","3.1.3.wav","0","0","NA","0","NA","1514","NA","1514","NA","424727","return","2","1024","2","48000","-16","experiment","3.1.3.wav","3.1.5.wav","3.1.5.wav","112","even","527973","530523","530023","529245","NA","NA","526973","531279","766","NA","NA","526970","532793","NA","526970","425496","NA","526973","768","New experiment","NA","0","0","0","yes","1024"
"undefined","undefined","undefined","undefined","black","no","legacy","0","uniform","undefined","undefined","undefined","17","17","35","17","17","NA","17","17","0","0","0","17","17","0","17","0","NA","17","0","Tue 23 Jul 2019 03:02:10 PM PDT","500","1000","The main experiment item","yes","NA","ABX_v3.osexp","/home/ubuntu/Desktop/panara","yes","no","mono","no","18","no","white","no","yes","768","17","17","/home/ubuntu/Desktop/panara/subject-112.csv","Jazzy James","3.1.3","3.2.3.wav","3.2.3.wav","3.2.1.wav","0","1","NA","1","NA","998","NA","998","NA","424727","return","2","1024","2","48000","-16","experiment","3.2.1.wav","3.2.3.wav","3.2.3.wav","112","even","534014","536518","536018","535268","NA","NA","533014","537273","766","NA","NA","533011","538272","NA","533011","425496","NA","533014","768","New experiment","NA","0","0","0","yes","1024"
"undefined","undefined","undefined","undefined","black","no","legacy","0","uniform","undefined","undefined","undefined","18","18","37","18","18","NA","18","18","0","0","0","18","18","0","18","0","NA","18","0","Tue 23 Jul 2019 03:02:10 PM PDT","500","1000","The main experiment item","yes","NA","ABX_v3.osexp","/home/ubuntu/Desktop/panara","yes","no","mono","no","18","no","white","no","yes","768","18","18","/home/ubuntu/Desktop/panara/subject-112.csv","Jazzy James","3.1.3","2.1.5.wav","2.1.3.wav","2.1.3.wav","0","1","NA","1","NA","1377","NA","1377","NA","424727","return","2","1024","2","48000","-16","experiment","2.1.3.wav","2.1.5.wav","2.1.3.wav","112","even","539483","541980","541480","540728","NA","NA","538483","542734","766","NA","NA","538480","544112","NA","538480","425496","NA","538483","768","New experiment","NA","0","0","0","yes","1024"
"undefined","undefined","undefined","undefined","black","no","legacy","0","uniform","undefined","undefined","undefined","19","19","39","19","19","NA","19","19","0","0","0","19","19","0","19","0","NA","19","0","Tue 23 Jul 2019 03:02:10 PM PDT","500","1000","The main experiment item","yes","NA","ABX_v3.osexp","/home/ubuntu/Desktop/panara","yes","no","mono","no","18","no","white","no","yes","768","19","19","/home/ubuntu/Desktop/panara/subject-112.csv","Jazzy James","3.1.3","5.2.4.wav","5.2.4.wav","5.2.2.wav","0","1","NA","1","NA","1815","NA","1815","NA","424727","return","2","1024","2","48000","-16","experiment","5.2.2.wav","5.2.4.wav","5.2.4.wav","112","even","545284","547776","547276","546530","NA","NA","544283","548472","766","NA","NA","544281","550287","NA","544281","425496","NA","544283","768","New experiment","NA","0","0","0","yes","1024"
"undefined","undefined","undefined","undefined","black","no","legacy","0","uniform","undefined","undefined","undefined","20","20","41","20","20","NA","20","20","0","0","0","20","20","0","20","0","NA","20","0","Tue 23 Jul 2019 03:02:10 PM PDT","500","1000","The main experiment item","yes","NA","ABX_v3.osexp","/home/ubuntu/Desktop/panara","no","no","mono","no","18","no","white","no","yes","768","20","20","/home/ubuntu/Desktop/panara/subject-112.csv","Jazzy James","3.1.3","3.2.3.wav","3.2.5.wav","3.2.5.wav","0","1","NA","1","NA","1117","NA","1117","NA","424727","return","2","1024","2","48000","-16","experiment","3.2.3.wav","3.2.5.wav","3.2.5.wav","112","even","551478","554011","553511","552730","NA","NA","550478","554794","766","NA","NA","550475","555912","NA","550475","425496","NA","550478","768","New experiment","NA","0","0","0","yes","1024"
"undefined","undefined","undefined","undefined","black","no","legacy","0","uniform","undefined","undefined","undefined","21","21","43","21","21","NA","21","21","0","0","0","21","21","0","21","0","NA","21","0","Tue 23 Jul 2019 03:02:10 PM PDT","500","1000","The main experiment item","yes","NA","ABX_v3.osexp","/home/ubuntu/Desktop/panara","yes","no","mono","no","18","no","white","no","yes","768","21","21","/home/ubuntu/Desktop/panara/subject-112.csv","Jazzy James","3.1.3","2.1.4.wav","2.1.2.wav","2.1.2.wav","0","0","NA","0","NA","1509","NA","1509","NA","424727","return","2","1024","2","48000","-16","experiment","2.1.2.wav","2.1.4.wav","2.1.2.wav","112","even","557097","559609","559109","558359","NA","NA","556097","560362","766","NA","NA","556095","561872","NA","556094","425496","NA","556097","768","New experiment","NA","0","0","0","yes","1024"
"undefined","undefined","undefined","undefined","black","no","legacy","0","uniform","undefined","undefined","undefined","22","22","45","22","22","NA","22","22","0","0","0","22","22","0","22","0","NA","22","0","Tue 23 Jul 2019 03:02:10 PM PDT","500","1000","The main experiment item","yes","NA","ABX_v3.osexp","/home/ubuntu/Desktop/panara","yes","no","mono","no","18","no","white","no","yes","768","22","22","/home/ubuntu/Desktop/panara/subject-112.csv","Jazzy James","3.1.3","5.2.5.wav","5.2.3.wav","5.2.3.wav","0","1","NA","1","NA","1386","NA","1386","NA","424727","return","2","1024","2","48000","-16","experiment","5.2.3.wav","5.2.5.wav","5.2.3.wav","112","even","563079","565551","565051","564329","NA","NA","562078","566285","766","NA","NA","562075","567671","NA","562075","425496","NA","562079","768","New experiment","NA","0","0","0","yes","1024"
"undefined","undefined","undefined","undefined","black","no","legacy","0","uniform","undefined","undefined","undefined","23","23","47","23","23","NA","23","23","0","0","0","23","23","0","23","0","NA","23","0","Tue 23 Jul 2019 03:02:10 PM PDT","500","1000","The main experiment item","yes","NA","ABX_v3.osexp","/home/ubuntu/Desktop/panara","yes","no","mono","no","18","no","white","no","yes","768","23","23","/home/ubuntu/Desktop/panara/subject-112.csv","Jazzy James","3.1.3","4.2.5.wav","4.2.5.wav","4.2.3.wav","0","1","NA","1","NA","629","NA","629","NA","424727","return","2","1024","2","48000","-16","experiment","4.2.3.wav","4.2.5.wav","4.2.5.wav","112","even","568854","571312","570812","570089","NA","NA","567854","572066","766","NA","NA","567851","572695","NA","567851","425496","NA","567854","768","New experiment","NA","0","0","0","yes","1024"
"undefined","undefined","undefined","undefined","black","no","legacy","0","uniform","undefined","undefined","undefined","24","24","49","24","24","NA","24","24","0","0","0","24","24","0","24","0","NA","24","0","Tue 23 Jul 2019 03:02:10 PM PDT","500","1000","The main experiment item","yes","NA","ABX_v3.osexp","/home/ubuntu/Desktop/panara","yes","no","mono","no","18","no","white","no","yes","768","24","24","/home/ubuntu/Desktop/panara/subject-112.csv","Jazzy James","3.1.3","2.1.3.wav","2.1.3.wav","2.1.1.wav","0","1","NA","1","NA","1503","NA","1503","NA","424727","return","2","1024","2","48000","-16","experiment","2.1.1.wav","2.1.3.wav","2.1.3.wav","112","even","573882","576389","575889","575139","NA","NA","572881","577143","766","NA","NA","572879","578647","NA","572879","425496","NA","572882","768","New experiment","NA","0","0","0","yes","1024"
"undefined","undefined","undefined","undefined","black","no","legacy","0","uniform","undefined","undefined","undefined","25","25","51","25","25","NA","25","25","0","0","0","25","25","0","25","0","NA","25","0","Tue 23 Jul 2019 03:02:10 PM PDT","500","1000","The main experiment item","yes","NA","ABX_v3.osexp","/home/ubuntu/Desktop/panara","yes","no","mono","no","18","no","white","no","yes","768","25","25","/home/ubuntu/Desktop/panara/subject-112.csv","Jazzy James","3.1.3","1.2.3.wav","1.2.3.wav","1.2.1.wav","0","1","NA","1","NA","1376","NA","1376","NA","424727","return","2","1024","2","48000","-16","experiment","1.2.1.wav","1.2.3.wav","1.2.3.wav","112","even","579820","582377","581877","581097","NA","NA","578819","583158","766","NA","NA","578817","584534","NA","578817","425496","NA","578820","768","New experiment","NA","0","0","0","yes","1024"
"undefined","undefined","undefined","undefined","black","no","legacy","0","uniform","undefined","undefined","undefined","26","26","53","26","26","NA","26","26","0","0","0","26","26","0","26","0","NA","26","0","Tue 23 Jul 2019 03:02:10 PM PDT","500","1000","The main experiment item","yes","NA","ABX_v3.osexp","/home/ubuntu/Desktop/panara","yes","no","mono","no","18","no","white","no","yes","768","26","26","/home/ubuntu/Desktop/panara/subject-112.csv","Jazzy James","3.1.3","1.1.3.wav","1.1.3.wav","1.1.1.wav","0","0","NA","0","NA","652","NA","652","NA","424727","return","2","1024","2","48000","-16","experiment","1.1.1.wav","1.1.3.wav","1.1.3.wav","112","even","585731","588287","587787","587006","NA","NA","584730","589090","766","NA","NA","584727","589742","NA","584727","425496","NA","584731","768","New experiment","NA","0","0","0","yes","1024"
"undefined","undefined","undefined","undefined","black","no","legacy","0","uniform","undefined","undefined","undefined","27","27","55","27","27","NA","27","27","0","0","0","27","27","0","27","0","NA","27","0","Tue 23 Jul 2019 03:02:10 PM PDT","500","1000","The main experiment item","yes","NA","ABX_v3.osexp","/home/ubuntu/Desktop/panara","yes","no","mono","no","18","no","white","no","yes","768","27","27","/home/ubuntu/Desktop/panara/subject-112.csv","Jazzy James","3.1.3","4.1.5.wav","4.1.5.wav","4.1.3.wav","0","0","NA","0","NA","721","NA","721","NA","424727","return","2","1024","2","48000","-16","experiment","4.1.3.wav","4.1.5.wav","4.1.5.wav","112","even","590947","593391","592891","592169","NA","NA","589946","594108","766","NA","NA","589944","594830","NA","589944","425496","NA","589947","768","New experiment","NA","0","0","0","yes","1024"
"undefined","undefined","undefined","undefined","black","no","legacy","0","uniform","undefined","undefined","undefined","28","28","57","28","28","NA","28","28","0","0","0","28","28","0","28","0","NA","28","0","Tue 23 Jul 2019 03:02:10 PM PDT","500","1000","The main experiment item","yes","NA","ABX_v3.osexp","/home/ubuntu/Desktop/panara","no","no","mono","no","18","no","white","no","yes","768","28","28","/home/ubuntu/Desktop/panara/subject-112.csv","Jazzy James","3.1.3","3.1.2.wav","3.1.4.wav","3.1.4.wav","0","1","NA","1","NA","897","NA","897","NA","424727","return","2","1024","2","48000","-16","experiment","3.1.2.wav","3.1.4.wav","3.1.4.wav","112","even","596035","598589","598089","597311","NA","NA","595035","599371","766","NA","NA","595033","600269","NA","595032","425496","NA","595035","768","New experiment","NA","0","0","0","yes","1024"
"undefined","undefined","undefined","undefined","black","no","legacy","0","uniform","undefined","undefined","undefined","29","29","59","29","29","NA","29","29","0","0","0","29","29","0","29","0","NA","29","0","Tue 23 Jul 2019 03:02:10 PM PDT","500","1000","The main experiment item","yes","NA","ABX_v3.osexp","/home/ubuntu/Desktop/panara","no","no","mono","no","18","no","white","no","yes","768","29","29","/home/ubuntu/Desktop/panara/subject-112.csv","Jazzy James","3.1.3","2.2.3.wav","2.2.3.wav","2.2.5.wav","0","1","NA","1","NA","385","NA","385","NA","424727","return","2","1024","2","48000","-16","experiment","2.2.3.wav","2.2.5.wav","2.2.3.wav","112","even","601440","603901","603401","602648","NA","NA","600440","604619","766","NA","NA","600438","605004","NA","600438","425496","NA","600440","768","New experiment","NA","0","0","0","yes","1024"
"undefined","undefined","undefined","undefined","black","no","legacy","0","uniform","undefined","undefined","undefined","30","30","61","30","30","NA","30","30","0","0","0","30","30","0","30","0","NA","30","0","Tue 23 Jul 2019 03:02:10 PM PDT","500","1000","The main experiment item","yes","NA","ABX_v3.osexp","/home/ubuntu/Desktop/panara","no","no","mono","no","18","no","white","no","yes","768","30","30","/home/ubuntu/Desktop/panara/subject-112.csv","Jazzy James","3.1.3","1.2.3.wav","1.2.5.wav","1.2.5.wav","0","1","NA","1","NA","627","NA","627","NA","424727","return","2","1024","2","48000","-16","experiment","1.2.3.wav","1.2.5.wav","1.2.5.wav","112","even","606175","608721","608221","607448","NA","NA","605174","609497","766","NA","NA","605172","610124","NA","605172","425496","NA","605175","768","New experiment","NA","0","0","0","yes","1024"
"undefined","undefined","undefined","undefined","black","no","legacy","0","uniform","undefined","undefined","undefined","31","31","63","31","31","NA","31","31","0","0","0","31","31","0","31","0","NA","31","0","Tue 23 Jul 2019 03:02:10 PM PDT","500","1000","The main experiment item","yes","NA","ABX_v3.osexp","/home/ubuntu/Desktop/panara","yes","no","mono","no","18","no","white","no","yes","768","31","31","/home/ubuntu/Desktop/panara/subject-112.csv","Jazzy James","3.1.3","4.2.3.wav","4.2.3.wav","4.2.1.wav","0","0","NA","0","NA","958","NA","958","NA","424727","return","2","1024","2","48000","-16","experiment","4.2.1.wav","4.2.3.wav","4.2.3.wav","112","even","611278","613777","613277","612519","NA","NA","610277","614502","766","NA","NA","610274","615461","NA","610274","425496","NA","610277","768","New experiment","NA","0","0","0","yes","1024"
"undefined","undefined","undefined","undefined","black","no","legacy","0","uniform","undefined","undefined","undefined","32","32","65","32","32","NA","32","32","0","0","0","32","32","0","32","0","NA","32","0","Tue 23 Jul 2019 03:02:10 PM PDT","500","1000","The main experiment item","yes","NA","ABX_v3.osexp","/home/ubuntu/Desktop/panara","no","no","mono","no","18","no","white","no","yes","768","32","32","/home/ubuntu/Desktop/panara/subject-112.csv","Jazzy James","3.1.3","3.1.2.wav","3.1.2.wav","3.1.4.wav","0","1","NA","1","NA","1112","NA","1112","NA","424727","return","2","1024","2","48000","-16","experiment","3.1.2.wav","3.1.4.wav","3.1.2.wav","112","even","616644","619197","618697","617922","NA","NA","615644","619979","766","NA","NA","615641","621092","NA","615641","425496","NA","615644","768","New experiment","NA","0","0","0","yes","1024"
"undefined","undefined","undefined","undefined","black","no","legacy","0","uniform","undefined","undefined","undefined","33","33","67","33","33","NA","33","33","0","0","0","33","33","0","33","0","NA","33","0","Tue 23 Jul 2019 03:02:10 PM PDT","500","1000","The main experiment item","yes","NA","ABX_v3.osexp","/home/ubuntu/Desktop/panara","no","no","mono","no","18","no","white","no","yes","768","33","33","/home/ubuntu/Desktop/panara/subject-112.csv","Jazzy James","3.1.3","1.1.2.wav","1.1.2.wav","1.1.4.wav","0","1","NA","1","NA","486","NA","486","NA","424727","return","2","1024","2","48000","-16","experiment","1.1.2.wav","1.1.4.wav","1.1.2.wav","112","even","622245","624807","624307","623526","NA","NA","621244","625589","766","NA","NA","621242","626075","NA","621242","425496","NA","621245","768","New experiment","NA","0","0","0","yes","1024"
"undefined","undefined","undefined","undefined","black","no","legacy","0","uniform","undefined","undefined","undefined","34","34","69","34","34","NA","34","34","0","0","0","34","34","0","34","0","NA","34","0","Tue 23 Jul 2019 03:02:10 PM PDT","500","1000","The main experiment item","yes","NA","ABX_v3.osexp","/home/ubuntu/Desktop/panara","yes","no","mono","no","18","no","white","no","yes","768","34","34","/home/ubuntu/Desktop/panara/subject-112.csv","Jazzy James","3.1.3","2.2.3.wav","2.2.3.wav","2.2.1.wav","0","0","NA","0","NA","2523","NA","2523","NA","424727","return","2","1024","2","48000","-16","experiment","2.2.1.wav","2.2.3.wav","2.2.3.wav","112","even","627239","629697","629197","628476","NA","NA","626239","630416","766","NA","NA","626236","632940","NA","626236","425496","NA","626239","768","New experiment","NA","0","0","0","yes","1024"
"undefined","undefined","undefined","undefined","black","no","legacy","0","uniform","undefined","undefined","undefined","35","35","71","35","35","NA","35","35","0","0","0","35","35","0","35","0","NA","35","0","Tue 23 Jul 2019 03:02:10 PM PDT","500","1000","The main experiment item","yes","NA","ABX_v3.osexp","/home/ubuntu/Desktop/panara","yes","no","mono","no","18","no","white","no","yes","768","35","35","/home/ubuntu/Desktop/panara/subject-112.csv","Jazzy James","3.1.3","2.1.3.wav","2.1.1.wav","2.1.1.wav","0","1","NA","1","NA","897","NA","897","NA","424727","return","2","1024","2","48000","-16","experiment","2.1.1.wav","2.1.3.wav","2.1.1.wav","112","even","634057","636560","636060","635309","NA","NA","633057","637313","766","NA","NA","633054","638211","NA","633054","425496","NA","633057","768","New experiment","NA","0","0","0","yes","1024"
"undefined","undefined","undefined","undefined","black","no","legacy","0","uniform","undefined","undefined","undefined","36","36","73","36","36","NA","36","36","0","0","0","36","36","0","36","0","NA","36","0","Tue 23 Jul 2019 03:02:10 PM PDT","500","1000","The main experiment item","yes","NA","ABX_v3.osexp","/home/ubuntu/Desktop/panara","yes","no","mono","no","18","no","white","no","yes","768","36","36","/home/ubuntu/Desktop/panara/subject-112.csv","Jazzy James","3.1.3","4.2.4.wav","4.2.4.wav","4.2.2.wav","0","0","NA","0","NA","1413","NA","1413","NA","424727","return","2","1024","2","48000","-16","experiment","4.2.2.wav","4.2.4.wav","4.2.4.wav","112","even","639392","641873","641373","640619","NA","NA","638392","642597","766","NA","NA","638389","644010","NA","638389","425496","NA","638392","768","New experiment","NA","0","0","0","yes","1024"
"undefined","undefined","undefined","undefined","black","no","legacy","0","uniform","undefined","undefined","undefined","37","37","75","37","37","NA","37","37","0","0","0","37","37","0","37","0","NA","37","0","Tue 23 Jul 2019 03:02:10 PM PDT","500","1000","The main experiment item","yes","NA","ABX_v3.osexp","/home/ubuntu/Desktop/panara","no","no","mono","no","18","no","white","no","yes","768","37","37","/home/ubuntu/Desktop/panara/subject-112.csv","Jazzy James","3.1.3","5.2.3.wav","5.2.5.wav","5.2.5.wav","0","0","NA","0","NA","512","NA","512","NA","424727","return","2","1024","2","48000","-16","experiment","5.2.3.wav","5.2.5.wav","5.2.5.wav","112","even","645217","647658","647158","646444","NA","NA","644217","648379","766","NA","NA","644214","648891","NA","644214","425496","NA","644217","768","New experiment","NA","0","0","0","yes","1024"
"undefined","undefined","undefined","undefined","black","no","legacy","0","uniform","undefined","undefined","undefined","38","38","77","38","38","NA","38","38","0","0","0","38","38","0","38","0","NA","38","0","Tue 23 Jul 2019 03:02:10 PM PDT","500","1000","The main experiment item","yes","NA","ABX_v3.osexp","/home/ubuntu/Desktop/panara","no","no","mono","no","18","no","white","no","yes","768","38","38","/home/ubuntu/Desktop/panara/subject-112.csv","Jazzy James","3.1.3","1.1.3.wav","1.1.5.wav","1.1.5.wav","0","0","NA","0","NA","258","NA","258","NA","424727","return","2","1024","2","48000","-16","experiment","1.1.3.wav","1.1.5.wav","1.1.5.wav","112","even","650089","652673","652173","651392","NA","NA","649089","653456","766","NA","NA","649086","653715","NA","649086","425496","NA","649089","768","New experiment","NA","0","0","0","yes","1024"
"undefined","undefined","undefined","undefined","black","no","legacy","0","uniform","undefined","undefined","undefined","39","39","79","39","39","NA","39","39","0","0","0","39","39","0","39","0","NA","39","0","Tue 23 Jul 2019 03:02:10 PM PDT","500","1000","The main experiment item","yes","NA","ABX_v3.osexp","/home/ubuntu/Desktop/panara","no","no","mono","no","18","no","white","no","yes","768","39","39","/home/ubuntu/Desktop/panara/subject-112.csv","Jazzy James","3.1.3","3.1.1.wav","3.1.3.wav","3.1.3.wav","0","1","NA","1","NA","1017","NA","1017","NA","424727","return","2","1024","2","48000","-16","experiment","3.1.1.wav","3.1.3.wav","3.1.3.wav","112","even","654897","657424","656924","656158","NA","NA","653897","658176","766","NA","NA","653895","659194","NA","653895","425496","NA","653897","768","New experiment","NA","0","0","0","yes","1024"
"undefined","undefined","undefined","undefined","black","no","legacy","0","uniform","undefined","undefined","undefined","40","40","81","40","40","NA","40","40","0","0","0","40","40","0","40","0","NA","40","0","Tue 23 Jul 2019 03:02:10 PM PDT","500","1000","The main experiment item","yes","NA","ABX_v3.osexp","/home/ubuntu/Desktop/panara","yes","no","mono","no","18","no","white","no","yes","768","40","40","/home/ubuntu/Desktop/panara/subject-112.csv","Jazzy James","3.1.3","4.1.3.wav","4.1.3.wav","4.1.1.wav","0","0","NA","0","NA","566","NA","566","NA","424727","return","2","1024","2","48000","-16","experiment","4.1.1.wav","4.1.3.wav","4.1.3.wav","112","even","660346","662800","662299","661561","NA","NA","659345","663539","766","NA","NA","659343","664105","NA","659342","425496","NA","659346","768","New experiment","NA","0","0","0","yes","1024"
"undefined","undefined","undefined","undefined","black","no","legacy","0","uniform","undefined","undefined","undefined","41","41","83","41","41","NA","41","41","0","0","0","41","41","0","41","0","NA","41","0","Tue 23 Jul 2019 03:02:10 PM PDT","500","1000","The main experiment item","yes","NA","ABX_v3.osexp","/home/ubuntu/Desktop/panara","yes","no","mono","no","18","no","white","no","yes","768","41","41","/home/ubuntu/Desktop/panara/subject-112.csv","Jazzy James","3.1.3","1.2.4.wav","1.2.2.wav","1.2.2.wav","0","0","NA","0","NA","701","NA","701","NA","424727","return","2","1024","2","48000","-16","experiment","1.2.2.wav","1.2.4.wav","1.2.2.wav","112","even","665275","667813","667313","666532","NA","NA","664274","668596","766","NA","NA","664272","669298","NA","664271","425496","NA","664275","768","New experiment","NA","0","0","0","yes","1024"
"undefined","undefined","undefined","undefined","black","no","legacy","0","uniform","undefined","undefined","undefined","42","42","85","42","42","NA","42","42","0","0","0","42","42","0","42","0","NA","42","0","Tue 23 Jul 2019 03:02:10 PM PDT","500","1000","The main experiment item","yes","NA","ABX_v3.osexp","/home/ubuntu/Desktop/panara","no","no","mono","no","18","no","white","no","yes","768","42","42","/home/ubuntu/Desktop/panara/subject-112.csv","Jazzy James","3.1.3","3.2.3.wav","3.2.3.wav","3.2.5.wav","0","1","NA","1","NA","1621","NA","1621","NA","424727","return","2","1024","2","48000","-16","experiment","3.2.3.wav","3.2.5.wav","3.2.3.wav","112","even","670472","672981","672481","671728","NA","NA","669471","673780","766","NA","NA","669469","675402","NA","669469","425496","NA","669472","768","New experiment","NA","0","0","0","yes","1024"
"undefined","undefined","undefined","undefined","black","no","legacy","0","uniform","undefined","undefined","undefined","43","43","87","43","43","NA","43","43","0","0","0","43","43","0","43","0","NA","43","0","Tue 23 Jul 2019 03:02:10 PM PDT","500","1000","The main experiment item","yes","NA","ABX_v3.osexp","/home/ubuntu/Desktop/panara","yes","no","mono","no","18","no","white","no","yes","768","43","43","/home/ubuntu/Desktop/panara/subject-112.csv","Jazzy James","3.1.3","5.2.4.wav","5.2.2.wav","5.2.2.wav","0","0","NA","0","NA","364","NA","364","NA","424727","return","2","1024","2","48000","-16","experiment","5.2.2.wav","5.2.4.wav","5.2.2.wav","112","even","676577","679013","678513","677818","NA","NA","675577","679708","766","NA","NA","675575","680073","NA","675575","425496","NA","675577","768","New experiment","NA","0","0","0","yes","1024"
"undefined","undefined","undefined","undefined","black","no","legacy","0","uniform","undefined","undefined","undefined","44","44","89","44","44","NA","44","44","0","0","0","44","44","0","44","0","NA","44","0","Tue 23 Jul 2019 03:02:10 PM PDT","500","1000","The main experiment item","yes","NA","ABX_v3.osexp","/home/ubuntu/Desktop/panara","no","no","mono","no","18","no","white","no","yes","768","44","44","/home/ubuntu/Desktop/panara/subject-112.csv","Jazzy James","3.1.3","1.1.1.wav","1.1.1.wav","1.1.3.wav","0","1","NA","1","NA","879","NA","879","NA","424727","return","2","1024","2","48000","-16","experiment","1.1.1.wav","1.1.3.wav","1.1.1.wav","112","even","681227","683833","683333","682531","NA","NA","680227","684658","766","NA","NA","680225","685537","NA","680224","425496","NA","680227","768","New experiment","NA","0","0","0","yes","1024"
"undefined","undefined","undefined","undefined","black","no","legacy","0","uniform","undefined","undefined","undefined","45","45","91","45","45","NA","45","45","0","0","0","45","45","0","45","0","NA","45","0","Tue 23 Jul 2019 03:02:10 PM PDT","500","1000","The main experiment item","yes","NA","ABX_v3.osexp","/home/ubuntu/Desktop/panara","yes","no","mono","no","18","no","white","no","yes","768","45","45","/home/ubuntu/Desktop/panara/subject-112.csv","Jazzy James","3.1.3","3.2.4.wav","3.2.2.wav","3.2.2.wav","0","0","NA","0","NA","885","NA","885","NA","424727","return","2","1024","2","48000","-16","experiment","3.2.2.wav","3.2.4.wav","3.2.2.wav","112","even","686696","689230","688730","687956","NA","NA","685696","690004","766","NA","NA","685693","690889","NA","685693","425496","NA","685696","768","New experiment","NA","0","0","0","yes","1024"
"undefined","undefined","undefined","undefined","black","no","legacy","0","uniform","undefined","undefined","undefined","46","46","93","46","46","NA","46","46","0","0","0","46","46","0","46","0","NA","46","0","Tue 23 Jul 2019 03:02:10 PM PDT","500","1000","The main experiment item","yes","NA","ABX_v3.osexp","/home/ubuntu/Desktop/panara","yes","no","mono","no","18","no","white","no","yes","768","46","46","/home/ubuntu/Desktop/panara/subject-112.csv","Jazzy James","3.1.3","4.2.4.wav","4.2.2.wav","4.2.2.wav","0","0","NA","0","NA","677","NA","677","NA","424727","return","2","1024","2","48000","-16","experiment","4.2.2.wav","4.2.4.wav","4.2.2.wav","112","even","692008","694463","693963","693241","NA","NA","691008","695187","766","NA","NA","691006","695865","NA","691006","425496","NA","691008","768","New experiment","NA","0","0","0","yes","1024"
"undefined","undefined","undefined","undefined","black","no","legacy","0","uniform","undefined","undefined","undefined","47","47","95","47","47","NA","47","47","0","0","0","47","47","0","47","0","NA","47","0","Tue 23 Jul 2019 03:02:10 PM PDT","500","1000","The main experiment item","yes","NA","ABX_v3.osexp","/home/ubuntu/Desktop/panara","no","no","mono","no","18","no","white","no","yes","768","47","47","/home/ubuntu/Desktop/panara/subject-112.csv","Jazzy James","3.1.3","1.1.3.wav","1.1.3.wav","1.1.5.wav","0","1","NA","1","NA","409","NA","409","NA","424727","return","2","1024","2","48000","-16","experiment","1.1.3.wav","1.1.5.wav","1.1.3.wav","112","even","697036","699639","699139","698360","NA","NA","696036","700423","766","NA","NA","696033","700833","NA","696033","425496","NA","696036","768","New experiment","NA","0","0","0","yes","1024"
"undefined","undefined","undefined","undefined","black","no","legacy","0","uniform","undefined","undefined","undefined","48","48","97","48","48","NA","48","48","0","0","0","48","48","0","48","0","NA","48","0","Tue 23 Jul 2019 03:02:10 PM PDT","500","1000","The main experiment item","yes","NA","ABX_v3.osexp","/home/ubuntu/Desktop/panara","yes","no","mono","no","18","no","white","no","yes","768","48","48","/home/ubuntu/Desktop/panara/subject-112.csv","Jazzy James","3.1.3","5.2.3.wav","5.2.1.wav","5.2.1.wav","0","1","NA","1","NA","1134","NA","1134","NA","424727","return","2","1024","2","48000","-16","experiment","5.2.1.wav","5.2.3.wav","5.2.1.wav","112","even","702024","704440","703940","703253","NA","NA","701024","705137","766","NA","NA","701021","706271","NA","701021","425496","NA","701024","768","New experiment","NA","0","0","0","yes","1024"
"undefined","undefined","undefined","undefined","black","no","legacy","0","uniform","undefined","undefined","undefined","49","49","99","49","49","NA","49","49","0","0","0","49","49","0","49","0","NA","49","0","Tue 23 Jul 2019 03:02:10 PM PDT","500","1000","The main experiment item","yes","NA","ABX_v3.osexp","/home/ubuntu/Desktop/panara","yes","no","mono","no","18","no","white","no","yes","768","49","49","/home/ubuntu/Desktop/panara/subject-112.csv","Jazzy James","3.1.3","1.2.4.wav","1.2.4.wav","1.2.2.wav","0","0","NA","0","NA","556","NA","556","NA","424727","return","2","1024","2","48000","-16","experiment","1.2.2.wav","1.2.4.wav","1.2.4.wav","112","even","707453","709965","709465","708712","NA","NA","706453","710748","766","NA","NA","706451","711304","NA","706450","425496","NA","706453","768","New experiment","NA","0","0","0","yes","1024"
"undefined","undefined","undefined","undefined","black","no","legacy","0","uniform","undefined","undefined","undefined","50","50","101","50","50","NA","50","50","0","0","0","50","50","0","50","0","NA","50","0","Tue 23 Jul 2019 03:02:10 PM PDT","500","1000","The main experiment item","yes","NA","ABX_v3.osexp","/home/ubuntu/Desktop/panara","yes","no","mono","no","18","no","white","no","yes","768","50","50","/home/ubuntu/Desktop/panara/subject-112.csv","Jazzy James","3.1.3","4.1.4.wav","4.1.2.wav","4.1.2.wav","0","1","return","1","NA","764","5210","764","NA","424727","return","2","1024","2","48000","-16","experiment","4.1.2.wav","4.1.4.wav","4.1.2.wav","112","even","717659","720109","719609","718891","711445","NA","716659","720843","766","NA","NA","711443","721608","NA","711443","425496","NA","716659","768","New experiment","NA","0","0","0","yes","1024"
"undefined","undefined","undefined","undefined","black","no","legacy","0","uniform","undefined","undefined","undefined","51","51","103","51","51","NA","51","51","0","0","0","51","51","0","51","0","NA","51","0","Tue 23 Jul 2019 03:02:10 PM PDT","500","1000","The main experiment item","yes","NA","ABX_v3.osexp","/home/ubuntu/Desktop/panara","yes","no","mono","no","18","no","white","no","yes","768","51","51","/home/ubuntu/Desktop/panara/subject-112.csv","Jazzy James","3.1.3","5.2.3.wav","5.2.3.wav","5.2.1.wav","0","0","return","0","NA","1684","5210","1684","NA","424727","return","2","1024","2","48000","-16","experiment","5.2.1.wav","5.2.3.wav","5.2.3.wav","112","even","722795","725269","724769","724022","711445","NA","721795","725963","766","NA","NA","721792","727647","NA","721792","425496","NA","721795","768","New experiment","NA","0","0","0","yes","1024"
"undefined","undefined","undefined","undefined","black","no","legacy","0","uniform","undefined","undefined","undefined","52","52","105","52","52","NA","52","52","0","0","0","52","52","0","52","0","NA","52","0","Tue 23 Jul 2019 03:02:10 PM PDT","500","1000","The main experiment item","yes","NA","ABX_v3.osexp","/home/ubuntu/Desktop/panara","yes","no","mono","no","18","no","white","no","yes","768","52","52","/home/ubuntu/Desktop/panara/subject-112.csv","Jazzy James","3.1.3","2.2.4.wav","2.2.2.wav","2.2.2.wav","0","0","return","0","NA","865","5210","865","NA","424727","return","2","1024","2","48000","-16","experiment","2.2.2.wav","2.2.4.wav","2.2.2.wav","112","even","728769","731190","730690","729974","711445","NA","727768","731934","766","NA","NA","727765","732799","NA","727765","425496","NA","727769","768","New experiment","NA","0","0","0","yes","1024"
"undefined","undefined","undefined","undefined","black","no","legacy","0","uniform","undefined","undefined","undefined","53","53","107","53","53","NA","53","53","0","0","0","53","53","0","53","0","NA","53","0","Tue 23 Jul 2019 03:02:10 PM PDT","500","1000","The main experiment item","yes","NA","ABX_v3.osexp","/home/ubuntu/Desktop/panara","yes","no","mono","no","18","no","white","no","yes","768","53","53","/home/ubuntu/Desktop/panara/subject-112.csv","Jazzy James","3.1.3","3.2.3.wav","3.2.1.wav","3.2.1.wav","0","0","return","0","NA","435","5210","435","NA","424727","return","2","1024","2","48000","-16","experiment","3.2.1.wav","3.2.3.wav","3.2.1.wav","112","even","733956","736489","735989","735226","711445","NA","732956","737227","766","NA","NA","732954","737663","NA","732954","425496","NA","732956","768","New experiment","NA","0","0","0","yes","1024"
"undefined","undefined","undefined","undefined","black","no","legacy","0","uniform","undefined","undefined","undefined","54","54","109","54","54","NA","54","54","0","0","0","54","54","0","54","0","NA","54","0","Tue 23 Jul 2019 03:02:10 PM PDT","500","1000","The main experiment item","yes","NA","ABX_v3.osexp","/home/ubuntu/Desktop/panara","no","no","mono","no","18","no","white","no","yes","768","0","53","/home/ubuntu/Desktop/panara/subject-112.csv","Jazzy James","3.1.3","1.2.3.wav","3.2.3.wav","3.2.5.wav","0","0","return","0","NA","793","5210","793","NA","424727","return","2","1024","2","48000","-16","experiment","1.2.3.wav","3.2.5.wav","3.2.3.wav","112","even","738834","741369","740869","740118","711445","NA","737834","742133","766","NA","NA","737831","742927","737763","737831","425496","NA","737834","768","New experiment","NA","0","0","0","yes","1024"
"undefined","undefined","undefined","undefined","black","no","legacy","0","uniform","undefined","undefined","undefined","55","55","111","55","55","NA","55","55","0","0","0","55","55","0","55","0","NA","55","0","Tue 23 Jul 2019 03:02:10 PM PDT","500","1000","The main experiment item","yes","NA","ABX_v3.osexp","/home/ubuntu/Desktop/panara","no","no","mono","no","18","no","white","no","yes","768","1","53","/home/ubuntu/Desktop/panara/subject-112.csv","Jazzy James","3.1.3","2.1.3.wav","2.1.5.wav","2.2.5.wav","0","0","return","0","NA","248","5210","248","NA","424727","return","2","1024","2","48000","-16","experiment","2.1.3.wav","2.2.5.wav","2.1.5.wav","112","even","744074","746601","746101","745343","711445","NA","743074","747318","766","NA","NA","743072","747567","737763","743072","425496","NA","743074","768","New experiment","NA","0","0","0","yes","1024"
"undefined","undefined","undefined","undefined","black","no","legacy","0","uniform","undefined","undefined","undefined","56","56","113","56","56","NA","56","56","0","0","0","56","56","0","56","0","NA","56","0","Tue 23 Jul 2019 03:02:10 PM PDT","500","1000","The main experiment item","yes","NA","ABX_v3.osexp","/home/ubuntu/Desktop/panara","yes","no","mono","no","18","no","white","no","yes","768","2","53","/home/ubuntu/Desktop/panara/subject-112.csv","Jazzy James","3.1.3","1.2.5.wav","2.2.5.wav","2.2.3.wav","0","0","return","0","NA","1845","5210","1845","NA","424727","return","2","1024","2","48000","-16","experiment","2.2.3.wav","1.2.5.wav","2.2.5.wav","112","even","748725","751273","750773","750016","711445","NA","747725","752033","766","NA","NA","747723","753878","737763","747723","425496","NA","747725","768","New experiment","NA","0","0","0","yes","1024"
"undefined","undefined","undefined","undefined","black","no","legacy","0","uniform","undefined","undefined","undefined","57","57","115","57","57","NA","57","57","0","0","0","57","57","0","57","0","NA","57","0","Tue 23 Jul 2019 03:02:10 PM PDT","500","1000","The main experiment item","yes","NA","ABX_v3.osexp","/home/ubuntu/Desktop/panara","no","no","mono","no","18","no","white","no","yes","768","3","53","/home/ubuntu/Desktop/panara/subject-112.csv","Jazzy James","3.1.3","2.2.1.wav","4.2.1.wav","4.2.3.wav","0","0","return","0","NA","269","5210","269","NA","424727","return","2","1024","2","48000","-16","experiment","2.2.1.wav","4.2.3.wav","4.2.1.wav","112","even","755020","757504","757004","756286","711445","NA","754020","758240","766","NA","NA","754018","758510","737763","754018","425496","NA","754020","768","New experiment","NA","0","0","0","yes","1024"
"undefined","undefined","undefined","undefined","black","no","legacy","0","uniform","undefined","undefined","undefined","58","58","117","58","58","NA","58","58","0","0","0","58","58","0","58","0","NA","58","0","Tue 23 Jul 2019 03:02:10 PM PDT","500","1000","The main experiment item","yes","NA","ABX_v3.osexp","/home/ubuntu/Desktop/panara","no","no","mono","no","18","no","white","no","yes","768","4","53","/home/ubuntu/Desktop/panara/subject-112.csv","Jazzy James","3.1.3","3.1.3.wav","3.1.5.wav","3.2.5.wav","0","0","return","0","NA","1101","5210","1101","NA","424727","return","2","1024","2","48000","-16","experiment","3.1.3.wav","3.2.5.wav","3.1.5.wav","112","even","759671","762211","761711","760938","711445","NA","758671","762999","766","NA","NA","758668","764101","737763","758668","425496","NA","758671","768","New experiment","NA","0","0","0","yes","1024"
"undefined","undefined","undefined","undefined","black","no","legacy","0","uniform","undefined","undefined","undefined","59","59","119","59","59","NA","59","59","0","0","0","59","59","0","59","0","NA","59","0","Tue 23 Jul 2019 03:02:10 PM PDT","500","1000","The main experiment item","yes","NA","ABX_v3.osexp","/home/ubuntu/Desktop/panara","no","no","mono","no","18","no","white","no","yes","768","5","53","/home/ubuntu/Desktop/panara/subject-112.csv","Jazzy James","3.1.3","3.2.3.wav","4.2.3.wav","4.2.5.wav","0","1","return","1","NA","506","5210","506","NA","424727","return","2","1024","2","48000","-16","experiment","3.2.3.wav","4.2.5.wav","4.2.3.wav","112","even","765263","767763","767263","766523","711445","NA","764263","768475","766","NA","NA","764260","768982","737763","764260","425496","NA","764263","768","New experiment","NA","0","0","0","yes","1024"
"undefined","undefined","undefined","undefined","black","no","legacy","0","uniform","undefined","undefined","undefined","60","60","121","60","60","NA","60","60","0","0","0","60","60","0","60","0","NA","60","0","Tue 23 Jul 2019 03:02:10 PM PDT","500","1000","The main experiment item","yes","NA","ABX_v3.osexp","/home/ubuntu/Desktop/panara","yes","no","mono","no","18","no","white","no","yes","768","6","53","/home/ubuntu/Desktop/panara/subject-112.csv","Jazzy James","3.1.3","1.1.4.wav","1.2.4.wav","1.2.2.wav","0","1","return","1","NA","573","5210","573","NA","424727","return","2","1024","2","48000","-16","experiment","1.2.2.wav","1.1.4.wav","1.2.4.wav","112","even","770141","772646","772146","771406","711445","NA","769141","773447","766","NA","NA","769138","774020","737763","769138","425496","NA","769141","768","New experiment","NA","0","0","0","yes","1024"
"undefined","undefined","undefined","undefined","black","no","legacy","0","uniform","undefined","undefined","undefined","61","61","123","61","61","NA","61","61","0","0","0","61","61","0","61","0","NA","61","0","Tue 23 Jul 2019 03:02:10 PM PDT","500","1000","The main experiment item","yes","NA","ABX_v3.osexp","/home/ubuntu/Desktop/panara","no","no","mono","no","18","no","white","no","yes","768","7","53","/home/ubuntu/Desktop/panara/subject-112.csv","Jazzy James","3.1.3","4.1.1.wav","4.2.1.wav","4.2.3.wav","0","0","return","0","NA","668","5210","668","NA","424727","return","2","1024","2","48000","-16","experiment","4.1.1.wav","4.2.3.wav","4.2.1.wav","112","even","775181","777608","777108","776393","711445","NA","774181","778352","766","NA","NA","774178","779020","737763","774178","425496","NA","774181","768","New experiment","NA","0","0","0","yes","1024"
"undefined","undefined","undefined","undefined","black","no","legacy","0","uniform","undefined","undefined","undefined","62","62","125","62","62","NA","62","62","0","0","0","62","62","0","62","0","NA","62","0","Tue 23 Jul 2019 03:02:10 PM PDT","500","1000","The main experiment item","yes","NA","ABX_v3.osexp","/home/ubuntu/Desktop/panara","yes","no","mono","no","18","no","white","no","yes","768","8","53","/home/ubuntu/Desktop/panara/subject-112.csv","Jazzy James","3.1.3","2.1.3.wav","2.1.1.wav","2.2.1.wav","0","0","return","0","NA","397","5210","397","NA","424727","return","2","1024","2","48000","-16","experiment","2.2.1.wav","2.1.3.wav","2.1.1.wav","112","even","780167","782669","782169","781417","711445","NA","779166","783407","766","NA","NA","779164","783805","737763","779164","425496","NA","779167","768","New experiment","NA","0","0","0","yes","1024"
"undefined","undefined","undefined","undefined","black","no","legacy","0","uniform","undefined","undefined","undefined","63","63","127","63","63","NA","63","63","0","0","0","63","63","0","63","0","NA","63","0","Tue 23 Jul 2019 03:02:10 PM PDT","500","1000","The main experiment item","yes","NA","ABX_v3.osexp","/home/ubuntu/Desktop/panara","yes","no","mono","no","18","no","white","no","yes","768","9","53","/home/ubuntu/Desktop/panara/subject-112.csv","Jazzy James","3.1.3","4.2.4.wav","4.2.2.wav","2.2.2.wav","0","0","return","0","NA","1042","5210","1042","NA","424727","return","2","1024","2","48000","-16","experiment","2.2.2.wav","4.2.4.wav","4.2.2.wav","112","even","784971","787452","786952","786231","711445","NA","783970","788185","766","NA","NA","783967","789228","737763","783967","425496","NA","783971","768","New experiment","NA","0","0","0","yes","1024"
"undefined","undefined","undefined","undefined","black","no","legacy","0","uniform","undefined","undefined","undefined","64","64","129","64","64","NA","64","64","0","0","0","64","64","0","64","0","NA","64","0","Tue 23 Jul 2019 03:02:10 PM PDT","500","1000","The main experiment item","yes","NA","ABX_v3.osexp","/home/ubuntu/Desktop/panara","yes","no","mono","no","18","no","white","no","yes","768","10","53","/home/ubuntu/Desktop/panara/subject-112.csv","Jazzy James","3.1.3","2.2.4.wav","2.2.2.wav","1.2.2.wav","0","0","return","0","NA","420","5210","420","NA","424727","return","2","1024","2","48000","-16","experiment","1.2.2.wav","2.2.4.wav","2.2.2.wav","112","even","790375","792866","792366","791610","711445","NA","789375","793647","766","NA","NA","789372","794067","737763","789372","425496","NA","789375","768","New experiment","NA","0","0","0","yes","1024"
"undefined","undefined","undefined","undefined","black","no","legacy","0","uniform","undefined","undefined","undefined","65","65","131","65","65","NA","65","65","0","0","0","65","65","0","65","0","NA","65","0","Tue 23 Jul 2019 03:02:10 PM PDT","500","1000","The main experiment item","yes","NA","ABX_v3.osexp","/home/ubuntu/Desktop/panara","yes","no","mono","no","18","no","white","no","yes","768","11","53","/home/ubuntu/Desktop/panara/subject-112.csv","Jazzy James","3.1.3","3.1.4.wav","3.1.2.wav","1.1.2.wav","0","1","return","1","NA","412","5210","412","NA","424727","return","2","1024","2","48000","-16","experiment","1.1.2.wav","3.1.4.wav","3.1.2.wav","112","even","795239","797820","797320","796538","711445","NA","794239","798615","766","NA","NA","794237","799027","737763","794237","425496","NA","794239","768","New experiment","NA","0","0","0","yes","1024"
"undefined","undefined","undefined","undefined","black","no","legacy","0","uniform","undefined","undefined","undefined","66","66","133","66","66","NA","66","66","0","0","0","66","66","0","66","0","NA","66","0","Tue 23 Jul 2019 03:02:10 PM PDT","500","1000","The main experiment item","yes","NA","ABX_v3.osexp","/home/ubuntu/Desktop/panara","yes","no","mono","no","18","no","white","no","yes","768","12","53","/home/ubuntu/Desktop/panara/subject-112.csv","Jazzy James","3.1.3","2.1.5.wav","1.1.5.wav","1.1.3.wav","0","0","return","0","NA","700","5210","700","NA","424727","return","2","1024","2","48000","-16","experiment","1.1.3.wav","2.1.5.wav","1.1.5.wav","112","even","800188","802682","802182","801419","711445","NA","799188","803462","766","NA","NA","799185","804163","737763","799185","425496","NA","799188","768","New experiment","NA","0","0","0","yes","1024"
"undefined","undefined","undefined","undefined","black","no","legacy","0","uniform","undefined","undefined","undefined","67","67","135","67","67","NA","67","67","0","0","0","67","67","0","67","0","NA","67","0","Tue 23 Jul 2019 03:02:10 PM PDT","500","1000","The main experiment item","yes","NA","ABX_v3.osexp","/home/ubuntu/Desktop/panara","yes","no","mono","no","18","no","white","no","yes","768","13","53","/home/ubuntu/Desktop/panara/subject-112.csv","Jazzy James","3.1.3","1.1.4.wav","2.1.4.wav","2.1.2.wav","0","1","return","1","NA","373","5210","373","NA","424727","return","2","1024","2","48000","-16","experiment","2.1.2.wav","1.1.4.wav","2.1.4.wav","112","even","805323","807863","807363","806611","711445","NA","804323","808622","766","NA","NA","804320","808996","737763","804320","425496","NA","804323","768","New experiment","NA","0","0","0","yes","1024"
"undefined","undefined","undefined","undefined","black","no","legacy","0","uniform","undefined","undefined","undefined","68","68","137","68","68","NA","68","68","0","0","0","68","68","0","68","0","NA","68","0","Tue 23 Jul 2019 03:02:10 PM PDT","500","1000","The main experiment item","yes","NA","ABX_v3.osexp","/home/ubuntu/Desktop/panara","no","no","mono","no","18","no","white","no","yes","768","14","53","/home/ubuntu/Desktop/panara/subject-112.csv","Jazzy James","3.1.3","2.2.3.wav","4.2.3.wav","4.2.5.wav","0","0","return","0","NA","258","5210","258","NA","424727","return","2","1024","2","48000","-16","experiment","2.2.3.wav","4.2.5.wav","4.2.3.wav","112","even","810160","812637","812137","811400","711445","NA","809160","813385","766","NA","NA","809158","813644","737763","809158","425496","NA","809160","768","New experiment","NA","0","0","0","yes","1024"
"undefined","undefined","undefined","undefined","black","no","legacy","0","uniform","undefined","undefined","undefined","69","69","139","69","69","NA","69","69","0","0","0","69","69","0","69","0","NA","69","0","Tue 23 Jul 2019 03:02:10 PM PDT","500","1000","The main experiment item","yes","NA","ABX_v3.osexp","/home/ubuntu/Desktop/panara","yes","no","mono","no","18","no","white","no","yes","768","15","53","/home/ubuntu/Desktop/panara/subject-112.csv","Jazzy James","3.1.3","2.1.3.wav","1.1.3.wav","1.1.1.wav","0","0","return","0","NA","414","5210","414","NA","424727","return","2","1024","2","48000","-16","experiment","1.1.1.wav","2.1.3.wav","1.1.3.wav","112","even","814787","817354","816854","816050","711445","NA","813787","818157","766","NA","NA","813785","818571","737763","813784","425496","NA","813787","768","New experiment","NA","0","0","0","yes","1024"
"undefined","undefined","undefined","undefined","black","no","legacy","0","uniform","undefined","undefined","undefined","70","70","141","70","70","NA","70","70","0","0","0","70","70","0","70","0","NA","70","0","Tue 23 Jul 2019 03:02:10 PM PDT","500","1000","The main experiment item","yes","NA","ABX_v3.osexp","/home/ubuntu/Desktop/panara","no","no","mono","no","18","no","white","no","yes","768","16","53","/home/ubuntu/Desktop/panara/subject-112.csv","Jazzy James","3.1.3","1.2.1.wav","1.2.3.wav","3.2.3.wav","0","1","return","1","NA","577","5210","577","NA","424727","return","2","1024","2","48000","-16","experiment","1.2.1.wav","3.2.3.wav","1.2.3.wav","112","even","819725","822282","821782","821010","711445","NA","818724","823025","766","NA","NA","818722","823603","737763","818722","425496","NA","818725","768","New experiment","NA","0","0","0","yes","1024"
"undefined","undefined","undefined","undefined","black","no","legacy","0","uniform","undefined","undefined","undefined","71","71","143","71","71","NA","71","71","0","0","0","71","71","0","71","0","NA","71","0","Tue 23 Jul 2019 03:02:10 PM PDT","500","1000","The main experiment item","yes","NA","ABX_v3.osexp","/home/ubuntu/Desktop/panara","yes","no","mono","no","18","no","white","no","yes","768","17","53","/home/ubuntu/Desktop/panara/subject-112.csv","Jazzy James","3.1.3","4.1.5.wav","4.1.3.wav","4.2.3.wav","0","1","return","1","NA","812","5210","812","NA","424727","return","2","1024","2","48000","-16","experiment","4.2.3.wav","4.1.5.wav","4.1.3.wav","112","even","824755","827207","826707","825991","711445","NA","823754","827950","766","NA","NA","823752","828763","737763","823752","425496","NA","823755","768","New experiment","NA","0","0","0","yes","1024"
"undefined","undefined","undefined","undefined","black","no","legacy","0","uniform","undefined","undefined","undefined","72","72","145","72","72","NA","72","72","0","0","0","72","72","0","72","0","NA","72","0","Tue 23 Jul 2019 03:02:10 PM PDT","500","1000","The main experiment item","yes","NA","ABX_v3.osexp","/home/ubuntu/Desktop/panara","no","no","mono","no","18","no","white","no","yes","768","18","53","/home/ubuntu/Desktop/panara/subject-112.csv","Jazzy James","3.1.3","4.2.3.wav","4.2.5.wav","2.2.5.wav","0","0","return","0","NA","397","5210","397","NA","424727","return","2","1024","2","48000","-16","experiment","4.2.3.wav","2.2.5.wav","4.2.5.wav","112","even","829927","832399","831899","831175","711445","NA","828926","833117","766","NA","NA","828924","833515","737763","828923","425496","NA","828926","768","New experiment","NA","0","0","0","yes","1024"
"undefined","undefined","undefined","undefined","black","no","legacy","0","uniform","undefined","undefined","undefined","73","73","147","73","73","NA","73","73","0","0","0","73","73","0","73","0","NA","73","0","Tue 23 Jul 2019 03:02:10 PM PDT","500","1000","The main experiment item","yes","NA","ABX_v3.osexp","/home/ubuntu/Desktop/panara","yes","no","mono","no","18","no","white","no","yes","768","19","53","/home/ubuntu/Desktop/panara/subject-112.csv","Jazzy James","3.1.3","1.1.4.wav","1.1.2.wav","1.2.2.wav","0","0","return","0","NA","678","5210","678","NA","424727","return","2","1024","2","48000","-16","experiment","1.2.2.wav","1.1.4.wav","1.1.2.wav","112","even","834682","837255","836755","835979","711445","NA","833682","838044","766","NA","NA","833680","838722","737763","833680","425496","NA","833682","768","New experiment","NA","0","0","0","yes","1024"
"undefined","undefined","undefined","undefined","black","no","legacy","0","uniform","undefined","undefined","undefined","74","74","149","74","74","NA","74","74","0","0","0","74","74","0","74","0","NA","74","0","Tue 23 Jul 2019 03:02:10 PM PDT","500","1000","The main experiment item","yes","NA","ABX_v3.osexp","/home/ubuntu/Desktop/panara","yes","no","mono","no","18","no","white","no","yes","768","20","53","/home/ubuntu/Desktop/panara/subject-112.csv","Jazzy James","3.1.3","1.2.5.wav","1.2.3.wav","2.2.3.wav","0","0","return","0","NA","626","5210","626","NA","424727","return","2","1024","2","48000","-16","experiment","2.2.3.wav","1.2.5.wav","1.2.3.wav","112","even","839887","842420","841920","841146","711445","NA","838887","843168","766","NA","NA","838885","843794","737763","838885","425496","NA","838887","768","New experiment","NA","0","0","0","yes","1024"
"undefined","undefined","undefined","undefined","black","no","legacy","0","uniform","undefined","undefined","undefined","75","75","151","75","75","NA","75","75","0","0","0","75","75","0","75","0","NA","75","0","Tue 23 Jul 2019 03:02:10 PM PDT","500","1000","The main experiment item","yes","NA","ABX_v3.osexp","/home/ubuntu/Desktop/panara","no","no","mono","no","18","no","white","no","yes","768","21","53","/home/ubuntu/Desktop/panara/subject-112.csv","Jazzy James","3.1.3","4.1.1.wav","2.1.1.wav","2.1.3.wav","0","0","return","0","NA","624","5210","624","NA","424727","return","2","1024","2","48000","-16","experiment","4.1.1.wav","2.1.3.wav","2.1.1.wav","112","even","844989","847481","846981","846223","711445","NA","843989","848257","766","NA","NA","843986","848882","737763","843986","425496","NA","843989","768","New experiment","NA","0","0","0","yes","1024"
"undefined","undefined","undefined","undefined","black","no","legacy","0","uniform","undefined","undefined","undefined","76","76","153","76","76","NA","76","76","0","0","0","76","76","0","76","0","NA","76","0","Tue 23 Jul 2019 03:02:10 PM PDT","500","1000","The main experiment item","yes","NA","ABX_v3.osexp","/home/ubuntu/Desktop/panara","yes","no","mono","no","18","no","white","no","yes","768","22","53","/home/ubuntu/Desktop/panara/subject-112.csv","Jazzy James","3.1.3","2.1.5.wav","2.2.5.wav","2.2.3.wav","0","0","return","0","NA","248","5210","248","NA","424727","return","2","1024","2","48000","-16","experiment","2.2.3.wav","2.1.5.wav","2.2.5.wav","112","even","850043","852510","852010","851291","711445","NA","849043","853225","766","NA","NA","849040","853474","737763","849040","425496","NA","849043","768","New experiment","NA","0","0","0","yes","1024"
"undefined","undefined","undefined","undefined","black","no","legacy","0","uniform","undefined","undefined","undefined","77","77","155","77","77","NA","77","77","0","0","0","77","77","0","77","0","NA","77","0","Tue 23 Jul 2019 03:02:10 PM PDT","500","1000","The main experiment item","yes","NA","ABX_v3.osexp","/home/ubuntu/Desktop/panara","no","no","mono","no","18","no","white","no","yes","768","23","53","/home/ubuntu/Desktop/panara/subject-112.csv","Jazzy James","3.1.3","3.2.2.wav","4.2.2.wav","4.2.4.wav","0","0","return","0","NA","757","5210","757","NA","424727","return","2","1024","2","48000","-16","experiment","3.2.2.wav","4.2.4.wav","4.2.2.wav","112","even","854607","857093","856593","855863","711445","NA","853607","857812","766","NA","NA","853605","858569","737763","853605","425496","NA","853607","768","New experiment","NA","0","0","0","yes","1024"
"undefined","undefined","undefined","undefined","black","no","legacy","0","uniform","undefined","undefined","undefined","78","78","157","78","78","NA","78","78","0","0","0","78","78","0","78","0","NA","78","0","Tue 23 Jul 2019 03:02:10 PM PDT","500","1000","The main experiment item","yes","NA","ABX_v3.osexp","/home/ubuntu/Desktop/panara","yes","no","mono","no","18","no","white","no","yes","768","24","53","/home/ubuntu/Desktop/panara/subject-112.csv","Jazzy James","3.1.3","4.1.5.wav","2.1.5.wav","2.1.3.wav","0","1","return","1","NA","774","5210","774","NA","424727","return","2","1024","2","48000","-16","experiment","2.1.3.wav","4.1.5.wav","2.1.5.wav","112","even","859726","862220","861720","860978","711445","NA","858725","862979","766","NA","NA","858723","863753","737763","858723","425496","NA","858726","768","New experiment","NA","0","0","0","yes","1024"
"undefined","undefined","undefined","undefined","black","no","legacy","0","uniform","undefined","undefined","undefined","79","79","159","79","79","NA","79","79","0","0","0","79","79","0","79","0","NA","79","0","Tue 23 Jul 2019 03:02:10 PM PDT","500","1000","The main experiment item","yes","NA","ABX_v3.osexp","/home/ubuntu/Desktop/panara","yes","no","mono","no","18","no","white","no","yes","768","25","53","/home/ubuntu/Desktop/panara/subject-112.csv","Jazzy James","3.1.3","1.1.3.wav","1.1.1.wav","1.2.1.wav","0","0","return","0","NA","798","5210","798","NA","424727","return","2","1024","2","48000","-16","experiment","1.2.1.wav","1.1.3.wav","1.1.1.wav","112","even","864915","867463","866963","866190","711445","NA","863915","868233","766","NA","NA","863912","869032","737763","863912","425496","NA","863915","768","New experiment","NA","0","0","0","yes","1024"
"undefined","undefined","undefined","undefined","black","no","legacy","0","uniform","undefined","undefined","undefined","80","80","161","80","80","NA","80","80","0","0","0","80","80","0","80","0","NA","80","0","Tue 23 Jul 2019 03:02:10 PM PDT","500","1000","The main experiment item","yes","NA","ABX_v3.osexp","/home/ubuntu/Desktop/panara","no","no","mono","no","18","no","white","no","yes","768","26","53","/home/ubuntu/Desktop/panara/subject-112.csv","Jazzy James","3.1.3","2.1.2.wav","1.1.2.wav","1.1.4.wav","0","1","return","1","NA","263","5210","263","NA","424727","return","2","1024","2","48000","-16","experiment","2.1.2.wav","1.1.4.wav","1.1.2.wav","112","even","870197","872793","872293","871472","711445","NA","869196","873585","766","NA","NA","869194","873849","737763","869194","425496","NA","869197","768","New experiment","NA","0","0","0","yes","1024"
"undefined","undefined","undefined","undefined","black","no","legacy","0","uniform","undefined","undefined","undefined","81","81","163","81","81","NA","81","81","0","0","0","81","81","0","81","0","NA","81","0","Tue 23 Jul 2019 03:02:10 PM PDT","500","1000","The main experiment item","yes","NA","ABX_v3.osexp","/home/ubuntu/Desktop/panara","yes","no","mono","no","18","no","white","no","yes","768","27","53","/home/ubuntu/Desktop/panara/subject-112.csv","Jazzy James","3.1.3","3.2.5.wav","3.2.3.wav","4.2.3.wav","0","1","return","1","NA","684","5210","684","NA","424727","return","2","1024","2","48000","-16","experiment","4.2.3.wav","3.2.5.wav","3.2.3.wav","112","even","875008","877514","877014","876283","711445","NA","874008","878267","766","NA","NA","874006","878952","737763","874006","425496","NA","874008","768","New experiment","NA","0","0","0","yes","1024"
"undefined","undefined","undefined","undefined","black","no","legacy","0","uniform","undefined","undefined","undefined","82","82","165","82","82","NA","82","82","0","0","0","82","82","0","82","0","NA","82","0","Tue 23 Jul 2019 03:02:10 PM PDT","500","1000","The main experiment item","yes","NA","ABX_v3.osexp","/home/ubuntu/Desktop/panara","no","no","mono","no","18","no","white","no","yes","768","28","53","/home/ubuntu/Desktop/panara/subject-112.csv","Jazzy James","3.1.3","4.2.2.wav","4.2.4.wav","4.1.4.wav","0","1","return","1","NA","935","5210","935","NA","424727","return","2","1024","2","48000","-16","experiment","4.2.2.wav","4.1.4.wav","4.2.4.wav","112","even","880146","882657","882157","881395","711445","NA","879146","883376","766","NA","NA","879144","884311","737763","879144","425496","NA","879146","768","New experiment","NA","0","0","0","yes","1024"
"undefined","undefined","undefined","undefined","black","no","legacy","0","uniform","undefined","undefined","undefined","83","83","167","83","83","NA","83","83","0","0","0","83","83","0","83","0","NA","83","0","Tue 23 Jul 2019 03:02:10 PM PDT","500","1000","The main experiment item","yes","NA","ABX_v3.osexp","/home/ubuntu/Desktop/panara","no","no","mono","no","18","no","white","no","yes","768","29","53","/home/ubuntu/Desktop/panara/subject-112.csv","Jazzy James","3.1.3","3.1.1.wav","3.1.3.wav","3.2.3.wav","0","0","return","0","NA","263","5210","263","NA","424727","return","2","1024","2","48000","-16","experiment","3.1.1.wav","3.2.3.wav","3.1.3.wav","112","even","885494","887994","887494","886734","711445","NA","884494","888750","766","NA","NA","884492","889014","737763","884492","425496","NA","884494","768","New experiment","NA","0","0","0","yes","1024"
"undefined","undefined","undefined","undefined","black","no","legacy","0","uniform","undefined","undefined","undefined","84","84","169","84","84","NA","84","84","0","0","0","84","84","0","84","0","NA","84","0","Tue 23 Jul 2019 03:02:10 PM PDT","500","1000","The main experiment item","yes","NA","ABX_v3.osexp","/home/ubuntu/Desktop/panara","yes","no","mono","no","18","no","white","no","yes","768","30","53","/home/ubuntu/Desktop/panara/subject-112.csv","Jazzy James","3.1.3","4.2.4.wav","4.1.4.wav","4.1.2.wav","0","1","return","1","NA","728","5210","728","NA","424727","return","2","1024","2","48000","-16","experiment","4.1.2.wav","4.2.4.wav","4.1.4.wav","112","even","890193","892656","892156","891420","711445","NA","889192","893381","766","NA","NA","889190","894109","737763","889189","425496","NA","889192","768","New experiment","NA","0","0","0","yes","1024"
"undefined","undefined","undefined","undefined","black","no","legacy","0","uniform","undefined","undefined","undefined","85","85","171","85","85","NA","85","85","0","0","0","85","85","0","85","0","NA","85","0","Tue 23 Jul 2019 03:02:10 PM PDT","500","1000","The main experiment item","yes","NA","ABX_v3.osexp","/home/ubuntu/Desktop/panara","no","no","mono","no","18","no","white","no","yes","768","31","53","/home/ubuntu/Desktop/panara/subject-112.csv","Jazzy James","3.1.3","4.2.3.wav","4.2.5.wav","4.1.5.wav","0","0","return","0","NA","1003","5210","1003","NA","424727","return","2","1024","2","48000","-16","experiment","4.2.3.wav","4.1.5.wav","4.2.5.wav","112","even","895277","897759","897259","896526","711445","NA","894277","898474","766","NA","NA","894274","899478","737763","894274","425496","NA","894277","768","New experiment","NA","0","0","0","yes","1024"
"undefined","undefined","undefined","undefined","black","no","legacy","0","uniform","undefined","undefined","undefined","86","86","173","86","86","NA","86","86","0","0","0","86","86","0","86","0","NA","86","0","Tue 23 Jul 2019 03:02:10 PM PDT","500","1000","The main experiment item","yes","NA","ABX_v3.osexp","/home/ubuntu/Desktop/panara","no","no","mono","no","18","no","white","no","yes","768","32","53","/home/ubuntu/Desktop/panara/subject-112.csv","Jazzy James","3.1.3","1.1.3.wav","1.1.5.wav","1.2.5.wav","0","0","return","0","NA","1558","5210","1558","NA","424727","return","2","1024","2","48000","-16","experiment","1.1.3.wav","1.2.5.wav","1.1.5.wav","112","even","900644","903519","903019","901953","711445","NA","899644","904302","766","NA","NA","899642","905861","737763","899642","425496","NA","899644","768","New experiment","NA","0","0","0","yes","1024"
"undefined","undefined","undefined","undefined","black","no","legacy","0","uniform","undefined","undefined","undefined","87","87","175","87","87","NA","87","87","0","0","0","87","87","0","87","0","NA","87","0","Tue 23 Jul 2019 03:02:10 PM PDT","500","1000","The main experiment item","yes","NA","ABX_v3.osexp","/home/ubuntu/Desktop/panara","yes","no","mono","no","18","no","white","no","yes","768","33","53","/home/ubuntu/Desktop/panara/subject-112.csv","Jazzy James","3.1.3","4.1.4.wav","4.1.2.wav","2.1.2.wav","0","1","return","1","NA","883","5210","883","NA","424727","return","2","1024","2","48000","-16","experiment","2.1.2.wav","4.1.4.wav","4.1.2.wav","112","even","907022","909471","908971","908255","711445","NA","906022","910224","766","NA","NA","906019","911108","737763","906019","425496","NA","906022","768","New experiment","NA","0","0","0","yes","1024"
"undefined","undefined","undefined","undefined","black","no","legacy","0","uniform","undefined","undefined","undefined","88","88","177","88","88","NA","88","88","0","0","0","88","88","0","88","0","NA","88","0","Tue 23 Jul 2019 03:02:10 PM PDT","500","1000","The main experiment item","yes","NA","ABX_v3.osexp","/home/ubuntu/Desktop/panara","no","no","mono","no","18","no","white","no","yes","768","34","53","/home/ubuntu/Desktop/panara/subject-112.csv","Jazzy James","3.1.3","3.2.2.wav","3.2.4.wav","4.2.4.wav","0","1","return","1","NA","942","5210","942","NA","424727","return","2","1024","2","48000","-16","experiment","3.2.2.wav","4.2.4.wav","3.2.4.wav","112","even","912295","914839","914339","913586","711445","NA","911295","915565","766","NA","NA","911292","916508","737763","911292","425496","NA","911295","768","New experiment","NA","0","0","0","yes","1024"
"undefined","undefined","undefined","undefined","black","no","legacy","0","uniform","undefined","undefined","undefined","89","89","179","89","89","NA","89","89","0","0","0","89","89","0","89","0","NA","89","0","Tue 23 Jul 2019 03:02:10 PM PDT","500","1000","The main experiment item","yes","NA","ABX_v3.osexp","/home/ubuntu/Desktop/panara","no","no","mono","no","18","no","white","no","yes","768","35","53","/home/ubuntu/Desktop/panara/subject-112.csv","Jazzy James","3.1.3","3.1.3.wav","3.1.5.wav","1.1.5.wav","0","0","return","0","NA","1510","5210","1510","NA","424727","return","2","1024","2","48000","-16","experiment","3.1.3.wav","1.1.5.wav","3.1.5.wav","112","even","917672","920215","919715","918935","711445","NA","916672","920997","766","NA","NA","916669","922507","737763","916669","425496","NA","916672","768","New experiment","NA","0","0","0","yes","1024"
"undefined","undefined","undefined","undefined","black","no","legacy","0","uniform","undefined","undefined","undefined","90","90","181","90","90","NA","90","90","0","0","0","90","90","0","90","0","NA","90","0","Tue 23 Jul 2019 03:02:10 PM PDT","500","1000","The main experiment item","yes","NA","ABX_v3.osexp","/home/ubuntu/Desktop/panara","yes","no","mono","no","18","no","white","no","yes","768","36","53","/home/ubuntu/Desktop/panara/subject-112.csv","Jazzy James","3.1.3","4.2.3.wav","4.1.3.wav","4.1.1.wav","0","1","return","1","NA","464","5210","464","NA","424727","return","2","1024","2","48000","-16","experiment","4.1.1.wav","4.2.3.wav","4.1.3.wav","112","even","923668","926173","925673","924921","711445","NA","922667","926898","766","NA","NA","922665","927363","737763","922665","425496","NA","922668","768","New experiment","NA","0","0","0","yes","1024"
"undefined","undefined","undefined","undefined","black","no","legacy","0","uniform","undefined","undefined","undefined","91","91","183","91","91","NA","91","91","0","0","0","91","91","0","91","0","NA","91","0","Tue 23 Jul 2019 03:02:10 PM PDT","500","1000","The main experiment item","yes","NA","ABX_v3.osexp","/home/ubuntu/Desktop/panara","no","no","mono","no","18","no","white","no","yes","768","37","53","/home/ubuntu/Desktop/panara/subject-112.csv","Jazzy James","3.1.3","3.1.1.wav","1.1.1.wav","1.1.3.wav","0","0","return","0","NA","240","5210","240","NA","424727","return","2","1024","2","48000","-16","experiment","3.1.1.wav","1.1.3.wav","1.1.1.wav","112","even","928526","931093","930593","929784","711445","NA","927526","931897","766","NA","NA","927523","932137","737763","927523","425496","NA","927526","768","New experiment","NA","0","0","0","yes","1024"
"undefined","undefined","undefined","undefined","black","no","legacy","0","uniform","undefined","undefined","undefined","92","92","185","92","92","NA","92","92","0","0","0","92","92","0","92","0","NA","92","0","Tue 23 Jul 2019 03:02:10 PM PDT","500","1000","The main experiment item","yes","NA","ABX_v3.osexp","/home/ubuntu/Desktop/panara","yes","no","mono","no","18","no","white","no","yes","768","38","53","/home/ubuntu/Desktop/panara/subject-112.csv","Jazzy James","3.1.3","3.1.4.wav","4.1.4.wav","4.1.2.wav","0","0","return","0","NA","1364","5210","1364","NA","424727","return","2","1024","2","48000","-16","experiment","4.1.2.wav","3.1.4.wav","4.1.4.wav","112","even","933302","935778","935278","934562","711445","NA","932302","936533","766","NA","NA","932299","937898","737763","932299","425496","NA","932302","768","New experiment","NA","0","0","0","yes","1024"
"undefined","undefined","undefined","undefined","black","no","legacy","0","uniform","undefined","undefined","undefined","93","93","187","93","93","NA","93","93","0","0","0","93","93","0","93","0","NA","93","0","Tue 23 Jul 2019 03:02:10 PM PDT","500","1000","The main experiment item","yes","NA","ABX_v3.osexp","/home/ubuntu/Desktop/panara","yes","no","mono","no","18","no","white","no","yes","768","39","53","/home/ubuntu/Desktop/panara/subject-112.csv","Jazzy James","3.1.3","2.2.4.wav","2.1.4.wav","2.1.2.wav","0","0","return","0","NA","878","5210","878","NA","424727","return","2","1024","2","48000","-16","experiment","2.1.2.wav","2.2.4.wav","2.1.4.wav","112","even","939086","941566","941066","940322","711445","NA","938085","942314","766","NA","NA","938083","943192","737763","938083","425496","NA","938086","768","New experiment","NA","0","0","0","yes","1024"
"undefined","undefined","undefined","undefined","black","no","legacy","0","uniform","undefined","undefined","undefined","94","94","189","94","94","NA","94","94","0","0","0","94","94","0","94","0","NA","94","0","Tue 23 Jul 2019 03:02:10 PM PDT","500","1000","The main experiment item","yes","NA","ABX_v3.osexp","/home/ubuntu/Desktop/panara","no","no","mono","no","18","no","white","no","yes","768","40","53","/home/ubuntu/Desktop/panara/subject-112.csv","Jazzy James","3.1.3","1.1.1.wav","1.1.3.wav","3.1.3.wav","0","1","return","1","NA","1133","5210","1133","NA","424727","return","2","1024","2","48000","-16","experiment","1.1.1.wav","3.1.3.wav","1.1.3.wav","112","even","944370","946985","946485","945683","711445","NA","943369","947739","766","NA","NA","943367","948873","737763","943367","425496","NA","943370","768","New experiment","NA","0","0","0","yes","1024"
"undefined","undefined","undefined","undefined","black","no","legacy","0","uniform","undefined","undefined","undefined","95","95","191","95","95","NA","95","95","0","0","0","95","95","0","95","0","NA","95","0","Tue 23 Jul 2019 03:02:10 PM PDT","500","1000","The main experiment item","yes","NA","ABX_v3.osexp","/home/ubuntu/Desktop/panara","yes","no","mono","no","18","no","white","no","yes","768","41","53","/home/ubuntu/Desktop/panara/subject-112.csv","Jazzy James","3.1.3","2.2.5.wav","2.2.3.wav","1.2.3.wav","0","1","return","1","NA","1508","5210","1508","NA","424727","return","2","1024","2","48000","-16","experiment","1.2.3.wav","2.2.5.wav","2.2.3.wav","112","even","950036","952507","952007","951281","711445","NA","949035","953284","766","NA","NA","949033","954792","737763","949033","425496","NA","949036","768","New experiment","NA","0","0","0","yes","1024"
"undefined","undefined","undefined","undefined","black","no","legacy","0","uniform","undefined","undefined","undefined","96","96","193","96","96","NA","96","96","0","0","0","96","96","0","96","0","NA","96","0","Tue 23 Jul 2019 03:02:10 PM PDT","500","1000","The main experiment item","yes","NA","ABX_v3.osexp","/home/ubuntu/Desktop/panara","yes","no","mono","no","18","no","white","no","yes","768","42","53","/home/ubuntu/Desktop/panara/subject-112.csv","Jazzy James","3.1.3","2.1.4.wav","2.1.2.wav","2.2.2.wav","0","0","return","0","NA","1375","5210","1375","NA","424727","return","2","1024","2","48000","-16","experiment","2.2.2.wav","2.1.4.wav","2.1.2.wav","112","even","955955","958469","957969","957217","711445","NA","954955","959192","766","NA","NA","954952","960568","737763","954952","425496","NA","954955","768","New experiment","NA","0","0","0","yes","1024"
"undefined","undefined","undefined","undefined","black","no","legacy","0","uniform","undefined","undefined","undefined","97","97","195","97","97","NA","97","97","0","0","0","97","97","0","97","0","NA","97","0","Tue 23 Jul 2019 03:02:10 PM PDT","500","1000","The main experiment item","yes","NA","ABX_v3.osexp","/home/ubuntu/Desktop/panara","no","no","mono","no","18","no","white","no","yes","768","43","53","/home/ubuntu/Desktop/panara/subject-112.csv","Jazzy James","3.1.3","3.2.3.wav","3.2.5.wav","4.2.5.wav","0","1","return","1","NA","1026","5210","1026","NA","424727","return","2","1024","2","48000","-16","experiment","3.2.3.wav","4.2.5.wav","3.2.5.wav","112","even","961754","964294","963794","963013","711445","NA","960754","965035","766","NA","NA","960751","966062","737763","960751","425496","NA","960754","768","New experiment","NA","0","0","0","yes","1024"
"undefined","undefined","undefined","undefined","black","no","legacy","0","uniform","undefined","undefined","undefined","98","98","197","98","98","NA","98","98","0","0","0","98","98","0","98","0","NA","98","0","Tue 23 Jul 2019 03:02:10 PM PDT","500","1000","The main experiment item","yes","NA","ABX_v3.osexp","/home/ubuntu/Desktop/panara","no","no","mono","no","18","no","white","no","yes","768","44","53","/home/ubuntu/Desktop/panara/subject-112.csv","Jazzy James","3.1.3","3.1.2.wav","3.2.2.wav","3.2.4.wav","0","0","return","0","NA","714","5210","714","NA","424727","return","2","1024","2","48000","-16","experiment","3.1.2.wav","3.2.4.wav","3.2.2.wav","112","even","967194","969745","969245","968466","711445","NA","966194","970499","766","NA","NA","966192","971214","737763","966192","425496","NA","966194","768","New experiment","NA","0","0","0","yes","1024"
"undefined","undefined","undefined","undefined","black","no","legacy","0","uniform","undefined","undefined","undefined","99","99","199","99","99","NA","99","99","0","0","0","99","99","0","99","0","NA","99","0","Tue 23 Jul 2019 03:02:10 PM PDT","500","1000","The main experiment item","yes","NA","ABX_v3.osexp","/home/ubuntu/Desktop/panara","no","no","mono","no","18","no","white","no","yes","768","45","53","/home/ubuntu/Desktop/panara/subject-112.csv","Jazzy James","3.1.3","1.2.3.wav","1.2.5.wav","1.1.5.wav","0","0","return","0","NA","789","5210","789","NA","424727","return","2","1024","2","48000","-16","experiment","1.2.3.wav","1.1.5.wav","1.2.5.wav","112","even","972387","974937","974437","973656","711445","NA","971387","975712","766","NA","NA","971385","976502","737763","971385","425496","NA","971387","768","New experiment","NA","0","0","0","yes","1024"
"undefined","undefined","undefined","undefined","black","no","legacy","0","uniform","undefined","undefined","undefined","100","100","201","100","100","NA","100","100","0","0","0","100","100","0","100","0","NA","100","0","Tue 23 Jul 2019 03:02:10 PM PDT","500","1000","The main experiment item","yes","NA","ABX_v3.osexp","/home/ubuntu/Desktop/panara","yes","no","mono","no","18","no","white","no","yes","768","46","53","/home/ubuntu/Desktop/panara/subject-112.csv","Jazzy James","3.1.3","1.2.5.wav","1.2.3.wav","1.1.3.wav","0","1","return","1","NA","1256","3934","1256","NA","424727","return","2","1024","2","48000","-16","experiment","1.1.3.wav","1.2.5.wav","1.2.3.wav","112","even","981600","984137","983637","982857","976663","NA","980600","984948","766","NA","NA","976661","986204","737763","976660","425496","NA","980600","768","New experiment","NA","0","0","0","yes","1024"
"undefined","undefined","undefined","undefined","black","no","legacy","0","uniform","undefined","undefined","undefined","101","101","203","101","101","NA","101","101","0","0","0","101","101","0","101","0","NA","101","0","Tue 23 Jul 2019 03:02:10 PM PDT","500","1000","The main experiment item","yes","NA","ABX_v3.osexp","/home/ubuntu/Desktop/panara","yes","no","mono","no","18","no","white","no","yes","768","47","53","/home/ubuntu/Desktop/panara/subject-112.csv","Jazzy James","3.1.3","3.2.4.wav","3.2.2.wav","1.2.2.wav","0","1","return","1","NA","453","3934","453","NA","424727","return","2","1024","2","48000","-16","experiment","1.2.2.wav","3.2.4.wav","3.2.2.wav","112","even","987376","989918","989417","988644","976663","NA","986376","990694","766","NA","NA","986374","991148","737763","986374","425496","NA","986376","768","New experiment","NA","0","0","0","yes","1024"
"undefined","undefined","undefined","undefined","black","no","legacy","0","uniform","undefined","undefined","undefined","102","102","205","102","102","NA","102","102","0","0","0","102","102","0","102","0","NA","102","0","Tue 23 Jul 2019 03:02:10 PM PDT","500","1000","The main experiment item","yes","NA","ABX_v3.osexp","/home/ubuntu/Desktop/panara","no","no","mono","no","18","no","white","no","yes","768","48","53","/home/ubuntu/Desktop/panara/subject-112.csv","Jazzy James","3.1.3","3.2.2.wav","3.2.4.wav","1.2.4.wav","0","1","return","1","NA","331","3934","331","NA","424727","return","2","1024","2","48000","-16","experiment","3.2.2.wav","1.2.4.wav","3.2.4.wav","112","even","992335","994853","994353","993607","976663","NA","991335","995601","766","NA","NA","991332","995933","737763","991332","425496","NA","991335","768","New experiment","NA","0","0","0","yes","1024"
"undefined","undefined","undefined","undefined","black","no","legacy","0","uniform","undefined","undefined","undefined","103","103","207","103","103","NA","103","103","0","0","0","103","103","0","103","0","NA","103","0","Tue 23 Jul 2019 03:02:10 PM PDT","500","1000","The main experiment item","yes","NA","ABX_v3.osexp","/home/ubuntu/Desktop/panara","no","no","mono","no","18","no","white","no","yes","768","49","53","/home/ubuntu/Desktop/panara/subject-112.csv","Jazzy James","3.1.3","1.1.1.wav","3.1.1.wav","3.1.3.wav","0","0","return","0","NA","475","3934","475","NA","424727","return","2","1024","2","48000","-16","experiment","1.1.1.wav","3.1.3.wav","3.1.1.wav","112","even","997107","999645","999145","998403","976663","NA","996107","1000400","766","NA","NA","996104","1000876","737763","996104","425496","NA","996107","768","New experiment","NA","0","0","0","yes","1024"
"undefined","undefined","undefined","undefined","black","no","legacy","0","uniform","undefined","undefined","undefined","104","104","209","104","104","NA","104","104","0","0","0","104","104","0","104","0","NA","104","0","Tue 23 Jul 2019 03:02:10 PM PDT","500","1000","The main experiment item","yes","NA","ABX_v3.osexp","/home/ubuntu/Desktop/panara","yes","no","mono","no","18","no","white","no","yes","768","50","53","/home/ubuntu/Desktop/panara/subject-112.csv","Jazzy James","3.1.3","4.1.4.wav","3.1.4.wav","3.1.2.wav","0","1","return","1","NA","926","3934","926","NA","424727","return","2","1024","2","48000","-16","experiment","3.1.2.wav","4.1.4.wav","3.1.4.wav","112","even","1002050","1004565","1004065","1003287","976663","NA","1001050","1005348","766","NA","NA","1001048","1006275","737763","1001048","425496","NA","1001050","768","New experiment","NA","0","0","0","yes","1024"
"undefined","undefined","undefined","undefined","black","no","legacy","0","uniform","undefined","undefined","undefined","105","105","211","105","105","NA","105","105","0","0","0","105","105","0","105","0","NA","105","0","Tue 23 Jul 2019 03:02:10 PM PDT","500","1000","The main experiment item","yes","NA","ABX_v3.osexp","/home/ubuntu/Desktop/panara","yes","no","mono","no","18","no","white","no","yes","768","51","53","/home/ubuntu/Desktop/panara/subject-112.csv","Jazzy James","3.1.3","1.1.5.wav","2.1.5.wav","2.1.3.wav","0","0","return","0","NA","366","3934","366","NA","424727","return","2","1024","2","48000","-16","experiment","2.1.3.wav","1.1.5.wav","2.1.5.wav","112","even","1007453","1009985","1009485","1008747","976663","NA","1006452","1010739","766","NA","NA","1006450","1011106","737763","1006450","425496","NA","1006453","768","New experiment","NA","0","0","0","yes","1024"
"undefined","undefined","undefined","undefined","black","no","legacy","0","uniform","undefined","undefined","undefined","106","106","213","106","106","NA","106","106","0","0","0","106","106","0","106","0","NA","106","0","Tue 23 Jul 2019 03:02:10 PM PDT","500","1000","The main experiment item","yes","NA","ABX_v3.osexp","/home/ubuntu/Desktop/panara","no","no","mono","no","18","no","white","no","yes","768","52","53","/home/ubuntu/Desktop/panara/subject-112.csv","Jazzy James","3.1.3","4.1.3.wav","4.1.5.wav","4.2.5.wav","0","0","return","0","NA","761","3934","761","NA","424727","return","2","1024","2","48000","-16","experiment","4.1.3.wav","4.2.5.wav","4.1.5.wav","112","even","1012292","1014725","1014225","1013503","976663","NA","1011291","1015480","766","NA","NA","1011289","1016242","737763","1011289","425496","NA","1011292","768","New experiment","NA","0","0","0","yes","1024"
"undefined","undefined","undefined","undefined","black","no","legacy","0","uniform","undefined","undefined","undefined","107","107","215","107","107","NA","107","107","0","0","0","107","107","0","107","0","NA","107","0","Tue 23 Jul 2019 03:02:10 PM PDT","500","1000","The main experiment item","yes","NA","ABX_v3.osexp","/home/ubuntu/Desktop/panara","no","no","mono","no","18","no","white","no","yes","768","53","53","/home/ubuntu/Desktop/panara/subject-112.csv","Jazzy James","3.1.3","2.2.1.wav","2.2.3.wav","1.2.3.wav","0","0","return","0","NA","427","3934","427","NA","424727","return","2","1024","2","48000","-16","experiment","2.2.1.wav","1.2.3.wav","2.2.3.wav","112","even","1017403","1019839","1019339","1018622","976663","NA","1016403","1020621","766","NA","NA","1016401","1021049","737763","1016401","425496","NA","1016403","768","New experiment","NA","0","0","0","yes","1024"
"undefined","undefined","undefined","undefined","black","no","legacy","0","uniform","undefined","undefined","undefined","108","108","217","108","108","NA","108","108","0","0","0","108","108","0","108","0","NA","108","0","Tue 23 Jul 2019 03:02:10 PM PDT","500","1000","The main experiment item","yes","NA","ABX_v3.osexp","/home/ubuntu/Desktop/panara","no","no","mono","no","18","no","white","no","yes","768","54","53","/home/ubuntu/Desktop/panara/subject-112.csv","Jazzy James","3.1.3","3.2.2.wav","1.2.2.wav","1.2.4.wav","0","0","return","0","NA","1586","3934","1586","NA","424727","return","2","1024","2","48000","-16","experiment","3.2.2.wav","1.2.4.wav","1.2.2.wav","112","even","1022218","1024779","1024279","1023500","976663","NA","1021218","1025534","766","NA","NA","1021216","1027121","737763","1021216","425496","NA","1021218","768","New experiment","NA","0","0","0","yes","1024"
"undefined","undefined","undefined","undefined","black","no","legacy","0","uniform","undefined","undefined","undefined","109","109","219","109","109","NA","109","109","0","0","0","109","109","0","109","0","NA","109","0","Tue 23 Jul 2019 03:02:10 PM PDT","500","1000","The main experiment item","yes","NA","ABX_v3.osexp","/home/ubuntu/Desktop/panara","no","no","mono","no","18","no","white","no","yes","768","55","53","/home/ubuntu/Desktop/panara/subject-112.csv","Jazzy James","3.1.3","1.2.1.wav","2.2.1.wav","2.2.3.wav","0","0","return","0","NA","773","3934","773","NA","424727","return","2","1024","2","48000","-16","experiment","1.2.1.wav","2.2.3.wav","2.2.1.wav","112","even","1028279","1030781","1030281","1029564","976663","NA","1027278","1031507","766","NA","NA","1027275","1032280","737763","1027275","425496","NA","1027278","768","New experiment","NA","0","0","0","yes","1024"
"undefined","undefined","undefined","undefined","black","no","legacy","0","uniform","undefined","undefined","undefined","110","110","221","110","110","NA","110","110","0","0","0","110","110","0","110","0","NA","110","0","Tue 23 Jul 2019 03:02:10 PM PDT","500","1000","The main experiment item","yes","NA","ABX_v3.osexp","/home/ubuntu/Desktop/panara","no","no","mono","no","18","no","white","no","yes","768","56","53","/home/ubuntu/Desktop/panara/subject-112.csv","Jazzy James","3.1.3","4.2.1.wav","4.2.3.wav","4.1.3.wav","0","0","return","0","NA","1054","3934","1054","NA","424727","return","2","1024","2","48000","-16","experiment","4.2.1.wav","4.1.3.wav","4.2.3.wav","112","even","1033459","1035958","1035458","1034706","976663","NA","1032459","1036706","766","NA","NA","1032456","1037761","737763","1032456","425496","NA","1032459","768","New experiment","NA","0","0","0","yes","1024"
"undefined","undefined","undefined","undefined","black","no","legacy","0","uniform","undefined","undefined","undefined","111","111","223","111","111","NA","111","111","0","0","0","111","111","0","111","0","NA","111","0","Tue 23 Jul 2019 03:02:10 PM PDT","500","1000","The main experiment item","yes","NA","ABX_v3.osexp","/home/ubuntu/Desktop/panara","no","no","mono","no","18","no","white","no","yes","768","57","53","/home/ubuntu/Desktop/panara/subject-112.csv","Jazzy James","3.1.3","3.1.3.wav","3.2.3.wav","3.2.5.wav","0","1","return","1","NA","817","3934","817","NA","424727","return","2","1024","2","48000","-16","experiment","3.1.3.wav","3.2.5.wav","3.2.3.wav","112","even","1038937","1041433","1040933","1040190","976663","NA","1037937","1042214","766","NA","NA","1037935","1043031","737763","1037934","425496","NA","1037937","768","New experiment","NA","0","0","0","yes","1024"
"undefined","undefined","undefined","undefined","black","no","legacy","0","uniform","undefined","undefined","undefined","112","112","225","112","112","NA","112","112","0","0","0","112","112","0","112","0","NA","112","0","Tue 23 Jul 2019 03:02:10 PM PDT","500","1000","The main experiment item","yes","NA","ABX_v3.osexp","/home/ubuntu/Desktop/panara","yes","no","mono","no","18","no","white","no","yes","768","58","53","/home/ubuntu/Desktop/panara/subject-112.csv","Jazzy James","3.1.3","2.2.5.wav","2.2.3.wav","4.2.3.wav","0","1","return","1","NA","1344","3934","1344","NA","424727","return","2","1024","2","48000","-16","experiment","4.2.3.wav","2.2.5.wav","2.2.3.wav","112","even","1044198","1046653","1046153","1045439","976663","NA","1043198","1047407","766","NA","NA","1043195","1048752","737763","1043195","425496","NA","1043198","768","New experiment","NA","0","0","0","yes","1024"
"undefined","undefined","undefined","undefined","black","no","legacy","0","uniform","undefined","undefined","undefined","113","113","227","113","113","NA","113","113","0","0","0","113","113","0","113","0","NA","113","0","Tue 23 Jul 2019 03:02:10 PM PDT","500","1000","The main experiment item","yes","NA","ABX_v3.osexp","/home/ubuntu/Desktop/panara","yes","no","mono","no","18","no","white","no","yes","768","59","53","/home/ubuntu/Desktop/panara/subject-112.csv","Jazzy James","3.1.3","2.1.4.wav","2.2.4.wav","2.2.2.wav","0","0","return","0","NA","698","3934","698","NA","424727","return","2","1024","2","48000","-16","experiment","2.2.2.wav","2.1.4.wav","2.2.4.wav","112","even","1049940","1052455","1051955","1051203","976663","NA","1048940","1053173","766","NA","NA","1048937","1053872","737763","1048937","425496","NA","1048940","768","New experiment","NA","0","0","0","yes","1024"
