"acc","accuracy","average_response_time","avg_rt","background","bidi","canvas_backend","compensation","coordinates","correct","correct_display_selecting","correct_welcome","count_A","count_B","count_ISI","count_X","count_break","count_determine_break","count_display_listening","count_display_selecting","count_experiment","count_finished","count_getting_started","count_new_inline_script","count_new_logger","count_new_loop","count_new_sequence","count_plain_block","count_setup_breaks","count_wait_nextitem","count_welcome","datetime","delay_ISI","delay_wait_nextitem","description","disable_garbage_collection","empty_column","experiment_file","experiment_path","flip_order","font_bold","font_family","font_italic","font_size","font_underline","foreground","form_clicks","fullscreen","height","live_row","live_row_plain_block","logfile","opensesame_codename","opensesame_version","play1","play2","play3","repeat_cycle","response","response_break","response_display_selecting","response_finished","response_time","response_time_break","response_time_display_selecting","response_time_finished","response_time_welcome","response_welcome","round_decimals","sound_buf_size","sound_channels","sound_freq","sound_sample_size","start","stimA","stimB","stimX","subject_nr","subject_parity","time_A","time_B","time_ISI","time_X","time_break","time_determine_break","time_display_listening","time_display_selecting","time_experiment","time_finished","time_getting_started","time_new_inline_script","time_new_logger","time_new_loop","time_new_sequence","time_plain_block","time_setup_breaks","time_wait_nextitem","time_welcome","title","to_break","total_correct","total_response_time","total_responses","uniform_coordinates","width"
"undefined","undefined","undefined","undefined","black","no","legacy","0","uniform","undefined","undefined","undefined","0","0","1","0","0","NA","0","0","0","0","0","0","0","0","0","0","NA","0","0","Thu 25 Jul 2019 01:01:23 PM PDT","500","1000","The main experiment item","yes","NA","ABX_v3.osexp","/home/ubuntu/Desktop/panara","yes","no","mono","no","18","no","white","no","yes","768","0","0","/home/ubuntu/Desktop/panara/subject-113.csv","Jazzy James","3.1.3","2.2.4.wav","2.2.2.wav","2.2.2.wav","0","1","NA","1","NA","3388","NA","3388","NA","1365606","1","2","1024","2","48000","-16","experiment","2.2.2.wav","2.2.4.wav","2.2.2.wav","113","odd","1367246","1369726","1369226","1368477","NA","NA","1366246","1370458","541","NA","NA","1366243","1373846","NA","1366243","1366150","NA","1366246","543","New experiment","NA","0","0","0","yes","1024"
"undefined","undefined","undefined","undefined","black","no","legacy","0","uniform","undefined","undefined","undefined","1","1","3","1","1","NA","1","1","0","0","0","1","1","0","1","0","NA","1","0","Thu 25 Jul 2019 01:01:23 PM PDT","500","1000","The main experiment item","yes","NA","ABX_v3.osexp","/home/ubuntu/Desktop/panara","yes","no","mono","no","18","no","white","no","yes","768","1","1","/home/ubuntu/Desktop/panara/subject-113.csv","Jazzy James","3.1.3","2.2.4.wav","2.2.4.wav","2.2.2.wav","0","1","NA","1","NA","1047","NA","1047","NA","1365606","1","2","1024","2","48000","-16","experiment","2.2.2.wav","2.2.4.wav","2.2.4.wav","113","odd","1375144","1377600","1377100","1376369","NA","NA","1374144","1378351","541","NA","NA","1374141","1379398","NA","1374141","1366150","NA","1374144","543","New experiment","NA","0","0","0","yes","1024"
"undefined","undefined","undefined","undefined","black","no","legacy","0","uniform","undefined","undefined","undefined","2","2","5","2","2","NA","2","2","0","0","0","2","2","0","2","0","NA","2","0","Thu 25 Jul 2019 01:01:23 PM PDT","500","1000","The main experiment item","yes","NA","ABX_v3.osexp","/home/ubuntu/Desktop/panara","yes","no","mono","no","18","no","white","no","yes","768","2","2","/home/ubuntu/Desktop/panara/subject-113.csv","Jazzy James","3.1.3","3.2.4.wav","3.2.2.wav","3.2.2.wav","0","1","NA","1","NA","3072","NA","3072","NA","1365606","1","2","1024","2","48000","-16","experiment","3.2.2.wav","3.2.4.wav","3.2.2.wav","113","odd","1380627","1383155","1382655","1381878","NA","NA","1379627","1383932","541","NA","NA","1379625","1387005","NA","1379624","1366150","NA","1379627","543","New experiment","NA","0","0","0","yes","1024"
"undefined","undefined","undefined","undefined","black","no","legacy","0","uniform","undefined","undefined","undefined","3","3","7","3","3","NA","3","3","0","0","0","3","3","0","3","0","NA","3","0","Thu 25 Jul 2019 01:01:23 PM PDT","500","1000","The main experiment item","yes","NA","ABX_v3.osexp","/home/ubuntu/Desktop/panara","yes","no","mono","no","18","no","white","no","yes","768","3","3","/home/ubuntu/Desktop/panara/subject-113.csv","Jazzy James","3.1.3","4.2.3.wav","4.2.1.wav","4.2.1.wav","0","0","NA","0","NA","1110","NA","1110","NA","1365606","1","2","1024","2","48000","-16","experiment","4.2.1.wav","4.2.3.wav","4.2.1.wav","113","odd","1388214","1390709","1390209","1389470","NA","NA","1387214","1391447","541","NA","NA","1387212","1392557","NA","1387211","1366150","NA","1387214","543","New experiment","NA","0","0","0","yes","1024"
"undefined","undefined","undefined","undefined","black","no","legacy","0","uniform","undefined","undefined","undefined","4","4","9","4","4","NA","4","4","0","0","0","4","4","0","4","0","NA","4","0","Thu 25 Jul 2019 01:01:23 PM PDT","500","1000","The main experiment item","yes","NA","ABX_v3.osexp","/home/ubuntu/Desktop/panara","yes","no","mono","no","18","no","white","no","yes","768","4","4","/home/ubuntu/Desktop/panara/subject-113.csv","Jazzy James","3.1.3","2.1.5.wav","2.1.5.wav","2.1.3.wav","0","1","NA","1","NA","911","NA","911","NA","1365606","1","2","1024","2","48000","-16","experiment","2.1.3.wav","2.1.5.wav","2.1.5.wav","113","odd","1393755","1396280","1395780","1395024","NA","NA","1392755","1397030","541","NA","NA","1392752","1397941","NA","1392752","1366150","NA","1392755","543","New experiment","NA","0","0","0","yes","1024"
"undefined","undefined","undefined","undefined","black","no","legacy","0","uniform","undefined","undefined","undefined","5","5","11","5","5","NA","5","5","0","0","0","5","5","0","5","0","NA","5","0","Thu 25 Jul 2019 01:01:23 PM PDT","500","1000","The main experiment item","yes","NA","ABX_v3.osexp","/home/ubuntu/Desktop/panara","no","no","mono","no","18","no","white","no","yes","768","5","5","/home/ubuntu/Desktop/panara/subject-113.csv","Jazzy James","3.1.3","5.2.3.wav","5.2.3.wav","5.2.5.wav","0","1","NA","1","NA","2503","NA","2503","NA","1365606","1","2","1024","2","48000","-16","experiment","5.2.3.wav","5.2.5.wav","5.2.3.wav","113","odd","1399141","1401604","1401104","1400372","NA","NA","1398140","1402357","541","NA","NA","1398138","1404861","NA","1398138","1366150","NA","1398141","543","New experiment","NA","0","0","0","yes","1024"
"undefined","undefined","undefined","undefined","black","no","legacy","0","uniform","undefined","undefined","undefined","6","6","13","6","6","NA","6","6","0","0","0","6","6","0","6","0","NA","6","0","Thu 25 Jul 2019 01:01:23 PM PDT","500","1000","The main experiment item","yes","NA","ABX_v3.osexp","/home/ubuntu/Desktop/panara","no","no","mono","no","18","no","white","no","yes","768","6","6","/home/ubuntu/Desktop/panara/subject-113.csv","Jazzy James","3.1.3","2.1.1.wav","2.1.1.wav","2.1.3.wav","0","1","NA","1","NA","1231","NA","1231","NA","1365606","1","2","1024","2","48000","-16","experiment","2.1.1.wav","2.1.3.wav","2.1.1.wav","113","odd","1406045","1408540","1408040","1407298","NA","NA","1405044","1409293","541","NA","NA","1405042","1410524","NA","1405042","1366150","NA","1405045","543","New experiment","NA","0","0","0","yes","1024"
"undefined","undefined","undefined","undefined","black","no","legacy","0","uniform","undefined","undefined","undefined","7","7","15","7","7","NA","7","7","0","0","0","7","7","0","7","0","NA","7","0","Thu 25 Jul 2019 01:01:23 PM PDT","500","1000","The main experiment item","yes","NA","ABX_v3.osexp","/home/ubuntu/Desktop/panara","yes","no","mono","no","18","no","white","no","yes","768","7","7","/home/ubuntu/Desktop/panara/subject-113.csv","Jazzy James","3.1.3","2.2.3.wav","2.2.1.wav","2.2.1.wav","0","0","NA","0","NA","563","NA","563","NA","1365606","1","2","1024","2","48000","-16","experiment","2.2.1.wav","2.2.3.wav","2.2.1.wav","113","odd","1411742","1414221","1413721","1412973","NA","NA","1410742","1414952","541","NA","NA","1410739","1415516","NA","1410739","1366150","NA","1410742","543","New experiment","NA","0","0","0","yes","1024"
"undefined","undefined","undefined","undefined","black","no","legacy","0","uniform","undefined","undefined","undefined","8","8","17","8","8","NA","8","8","0","0","0","8","8","0","8","0","NA","8","0","Thu 25 Jul 2019 01:01:23 PM PDT","500","1000","The main experiment item","yes","NA","ABX_v3.osexp","/home/ubuntu/Desktop/panara","yes","no","mono","no","18","no","white","no","yes","768","8","8","/home/ubuntu/Desktop/panara/subject-113.csv","Jazzy James","3.1.3","1.2.3.wav","1.2.3.wav","1.2.1.wav","0","0","NA","0","NA","532","NA","532","NA","1365606","1","2","1024","2","48000","-16","experiment","1.2.1.wav","1.2.3.wav","1.2.3.wav","113","odd","1416725","1419283","1418783","1417982","NA","NA","1415725","1420079","541","NA","NA","1415722","1420612","NA","1415722","1366150","NA","1415725","543","New experiment","NA","0","0","0","yes","1024"
"undefined","undefined","undefined","undefined","black","no","legacy","0","uniform","undefined","undefined","undefined","9","9","19","9","9","NA","9","9","0","0","0","9","9","0","9","0","NA","9","0","Thu 25 Jul 2019 01:01:23 PM PDT","500","1000","The main experiment item","yes","NA","ABX_v3.osexp","/home/ubuntu/Desktop/panara","no","no","mono","no","18","no","white","no","yes","768","9","9","/home/ubuntu/Desktop/panara/subject-113.csv","Jazzy James","3.1.3","1.2.3.wav","1.2.5.wav","1.2.5.wav","0","1","NA","1","NA","1131","NA","1131","NA","1365606","1","2","1024","2","48000","-16","experiment","1.2.3.wav","1.2.5.wav","1.2.5.wav","113","odd","1421777","1424356","1423856","1423058","NA","NA","1420777","1425135","541","NA","NA","1420774","1426266","NA","1420774","1366150","NA","1420777","543","New experiment","NA","0","0","0","yes","1024"
"undefined","undefined","undefined","undefined","black","no","legacy","0","uniform","undefined","undefined","undefined","10","10","21","10","10","NA","10","10","0","0","0","10","10","0","10","0","NA","10","0","Thu 25 Jul 2019 01:01:23 PM PDT","500","1000","The main experiment item","yes","NA","ABX_v3.osexp","/home/ubuntu/Desktop/panara","yes","no","mono","no","18","no","white","no","yes","768","10","10","/home/ubuntu/Desktop/panara/subject-113.csv","Jazzy James","3.1.3","3.1.3.wav","3.1.3.wav","3.1.1.wav","0","1","NA","1","NA","419","NA","419","NA","1365606","1","2","1024","2","48000","-16","experiment","3.1.1.wav","3.1.3.wav","3.1.3.wav","113","odd","1427460","1429977","1429477","1428719","NA","NA","1426459","1430735","541","NA","NA","1426457","1431154","NA","1426456","1366150","NA","1426459","543","New experiment","NA","0","0","0","yes","1024"
"undefined","undefined","undefined","undefined","black","no","legacy","0","uniform","undefined","undefined","undefined","11","11","23","11","11","NA","11","11","0","0","0","11","11","0","11","0","NA","11","0","Thu 25 Jul 2019 01:01:23 PM PDT","500","1000","The main experiment item","yes","NA","ABX_v3.osexp","/home/ubuntu/Desktop/panara","yes","no","mono","no","18","no","white","no","yes","768","11","11","/home/ubuntu/Desktop/panara/subject-113.csv","Jazzy James","3.1.3","1.2.5.wav","1.2.3.wav","1.2.3.wav","0","1","NA","1","NA","1711","NA","1711","NA","1365606","1","2","1024","2","48000","-16","experiment","1.2.3.wav","1.2.5.wav","1.2.3.wav","113","odd","1432335","1434891","1434391","1433618","NA","NA","1431335","1435675","541","NA","NA","1431333","1437387","NA","1431333","1366150","NA","1431335","543","New experiment","NA","0","0","0","yes","1024"
"undefined","undefined","undefined","undefined","black","no","legacy","0","uniform","undefined","undefined","undefined","12","12","25","12","12","NA","12","12","0","0","0","12","12","0","12","0","NA","12","0","Thu 25 Jul 2019 01:01:23 PM PDT","500","1000","The main experiment item","yes","NA","ABX_v3.osexp","/home/ubuntu/Desktop/panara","yes","no","mono","no","18","no","white","no","yes","768","12","12","/home/ubuntu/Desktop/panara/subject-113.csv","Jazzy James","3.1.3","4.2.5.wav","4.2.5.wav","4.2.3.wav","0","1","NA","1","NA","1160","NA","1160","NA","1365606","1","2","1024","2","48000","-16","experiment","4.2.3.wav","4.2.5.wav","4.2.5.wav","113","odd","1438584","1441104","1440604","1439844","NA","NA","1437583","1441873","541","NA","NA","1437581","1443033","NA","1437581","1366150","NA","1437584","543","New experiment","NA","0","0","0","yes","1024"
"undefined","undefined","undefined","undefined","black","no","legacy","0","uniform","undefined","undefined","undefined","13","13","27","13","13","NA","13","13","0","0","0","13","13","0","13","0","NA","13","0","Thu 25 Jul 2019 01:01:23 PM PDT","500","1000","The main experiment item","yes","NA","ABX_v3.osexp","/home/ubuntu/Desktop/panara","no","no","mono","no","18","no","white","no","yes","768","13","13","/home/ubuntu/Desktop/panara/subject-113.csv","Jazzy James","3.1.3","4.1.3.wav","4.1.5.wav","4.1.5.wav","0","0","NA","0","NA","669","NA","669","NA","1365606","1","2","1024","2","48000","-16","experiment","4.1.3.wav","4.1.5.wav","4.1.5.wav","113","odd","1444269","1446741","1446241","1445507","NA","NA","1443269","1447476","541","NA","NA","1443266","1448145","NA","1443266","1366150","NA","1443269","543","New experiment","NA","0","0","0","yes","1024"
"undefined","undefined","undefined","undefined","black","no","legacy","0","uniform","undefined","undefined","undefined","14","14","29","14","14","NA","14","14","0","0","0","14","14","0","14","0","NA","14","0","Thu 25 Jul 2019 01:01:23 PM PDT","500","1000","The main experiment item","yes","NA","ABX_v3.osexp","/home/ubuntu/Desktop/panara","no","no","mono","no","18","no","white","no","yes","768","14","14","/home/ubuntu/Desktop/panara/subject-113.csv","Jazzy James","3.1.3","1.1.1.wav","1.1.3.wav","1.1.3.wav","0","1","NA","1","NA","1839","NA","1839","NA","1365606","1","2","1024","2","48000","-16","experiment","1.1.1.wav","1.1.3.wav","1.1.3.wav","113","odd","1449328","1451939","1451439","1450638","NA","NA","1448327","1452730","541","NA","NA","1448325","1454570","NA","1448325","1366150","NA","1448328","543","New experiment","NA","0","0","0","yes","1024"
"undefined","undefined","undefined","undefined","black","no","legacy","0","uniform","undefined","undefined","undefined","15","15","31","15","15","NA","15","15","0","0","0","15","15","0","15","0","NA","15","0","Thu 25 Jul 2019 01:01:23 PM PDT","500","1000","The main experiment item","yes","NA","ABX_v3.osexp","/home/ubuntu/Desktop/panara","no","no","mono","no","18","no","white","no","yes","768","15","15","/home/ubuntu/Desktop/panara/subject-113.csv","Jazzy James","3.1.3","4.1.3.wav","4.1.3.wav","4.1.5.wav","0","1","NA","1","NA","821","NA","821","NA","1365606","1","2","1024","2","48000","-16","experiment","4.1.3.wav","4.1.5.wav","4.1.3.wav","113","odd","1455734","1458193","1457692","1456966","NA","NA","1454733","1458916","541","NA","NA","1454731","1459737","NA","1454731","1366150","NA","1454734","543","New experiment","NA","0","0","0","yes","1024"
"undefined","undefined","undefined","undefined","black","no","legacy","0","uniform","undefined","undefined","undefined","16","16","33","16","16","NA","16","16","0","0","0","16","16","0","16","0","NA","16","0","Thu 25 Jul 2019 01:01:23 PM PDT","500","1000","The main experiment item","yes","NA","ABX_v3.osexp","/home/ubuntu/Desktop/panara","no","no","mono","no","18","no","white","no","yes","768","16","16","/home/ubuntu/Desktop/panara/subject-113.csv","Jazzy James","3.1.3","4.2.2.wav","4.2.4.wav","4.2.4.wav","0","1","NA","1","NA","1163","NA","1163","NA","1365606","1","2","1024","2","48000","-16","experiment","4.2.2.wav","4.2.4.wav","4.2.4.wav","113","odd","1460948","1463402","1462902","1462168","NA","NA","1459948","1464149","541","NA","NA","1459945","1465312","NA","1459945","1366150","NA","1459948","543","New experiment","NA","0","0","0","yes","1024"
"undefined","undefined","undefined","undefined","black","no","legacy","0","uniform","undefined","undefined","undefined","17","17","35","17","17","NA","17","17","0","0","0","17","17","0","17","0","NA","17","0","Thu 25 Jul 2019 01:01:23 PM PDT","500","1000","The main experiment item","yes","NA","ABX_v3.osexp","/home/ubuntu/Desktop/panara","no","no","mono","no","18","no","white","no","yes","768","17","17","/home/ubuntu/Desktop/panara/subject-113.csv","Jazzy James","3.1.3","2.2.1.wav","2.2.3.wav","2.2.3.wav","0","1","NA","1","NA","3182","NA","3182","NA","1365606","1","2","1024","2","48000","-16","experiment","2.2.1.wav","2.2.3.wav","2.2.3.wav","113","odd","1466464","1468931","1468431","1467706","NA","NA","1465464","1469682","541","NA","NA","1465461","1472865","NA","1465461","1366150","NA","1465464","543","New experiment","NA","0","0","0","yes","1024"
"undefined","undefined","undefined","undefined","black","no","legacy","0","uniform","undefined","undefined","undefined","18","18","37","18","18","NA","18","18","0","0","0","18","18","0","18","0","NA","18","0","Thu 25 Jul 2019 01:01:23 PM PDT","500","1000","The main experiment item","yes","NA","ABX_v3.osexp","/home/ubuntu/Desktop/panara","no","no","mono","no","18","no","white","no","yes","768","18","18","/home/ubuntu/Desktop/panara/subject-113.csv","Jazzy James","3.1.3","1.1.2.wav","1.1.4.wav","1.1.4.wav","0","0","NA","0","NA","563","NA","563","NA","1365606","1","2","1024","2","48000","-16","experiment","1.1.2.wav","1.1.4.wav","1.1.4.wav","113","odd","1474088","1476660","1476160","1475372","NA","NA","1473087","1477444","541","NA","NA","1473085","1478007","NA","1473085","1366150","NA","1473088","543","New experiment","NA","0","0","0","yes","1024"
"undefined","undefined","undefined","undefined","black","no","legacy","0","uniform","undefined","undefined","undefined","19","19","39","19","19","NA","19","19","0","0","0","19","19","0","19","0","NA","19","0","Thu 25 Jul 2019 01:01:23 PM PDT","500","1000","The main experiment item","yes","NA","ABX_v3.osexp","/home/ubuntu/Desktop/panara","no","no","mono","no","18","no","white","no","yes","768","19","19","/home/ubuntu/Desktop/panara/subject-113.csv","Jazzy James","3.1.3","3.2.2.wav","3.2.4.wav","3.2.4.wav","0","0","NA","0","NA","3623","NA","3623","NA","1365606","1","2","1024","2","48000","-16","experiment","3.2.2.wav","3.2.4.wav","3.2.4.wav","113","odd","1479194","1481735","1481235","1480463","NA","NA","1478194","1482495","541","NA","NA","1478192","1486119","NA","1478191","1366150","NA","1478194","543","New experiment","NA","0","0","0","yes","1024"
"undefined","undefined","undefined","undefined","black","no","legacy","0","uniform","undefined","undefined","undefined","20","20","41","20","20","NA","20","20","0","0","0","20","20","0","20","0","NA","20","0","Thu 25 Jul 2019 01:01:23 PM PDT","500","1000","The main experiment item","yes","NA","ABX_v3.osexp","/home/ubuntu/Desktop/panara","no","no","mono","no","18","no","white","no","yes","768","20","20","/home/ubuntu/Desktop/panara/subject-113.csv","Jazzy James","3.1.3","1.1.2.wav","1.1.2.wav","1.1.4.wav","0","1","NA","1","NA","627","NA","627","NA","1365606","1","2","1024","2","48000","-16","experiment","1.1.2.wav","1.1.4.wav","1.1.2.wav","113","odd","1487296","1489890","1489390","1488573","NA","NA","1486296","1490691","541","NA","NA","1486294","1491318","NA","1486294","1366150","NA","1486296","543","New experiment","NA","0","0","0","yes","1024"
"undefined","undefined","undefined","undefined","black","no","legacy","0","uniform","undefined","undefined","undefined","21","21","43","21","21","NA","21","21","0","0","0","21","21","0","21","0","NA","21","0","Thu 25 Jul 2019 01:01:23 PM PDT","500","1000","The main experiment item","yes","NA","ABX_v3.osexp","/home/ubuntu/Desktop/panara","yes","no","mono","no","18","no","white","no","yes","768","21","21","/home/ubuntu/Desktop/panara/subject-113.csv","Jazzy James","3.1.3","3.1.3.wav","3.1.1.wav","3.1.1.wav","0","0","NA","0","NA","490","NA","490","NA","1365606","1","2","1024","2","48000","-16","experiment","3.1.1.wav","3.1.3.wav","3.1.1.wav","113","odd","1492505","1495012","1494512","1493753","NA","NA","1491505","1495788","541","NA","NA","1491503","1496278","NA","1491503","1366150","NA","1491505","543","New experiment","NA","0","0","0","yes","1024"
"undefined","undefined","undefined","undefined","black","no","legacy","0","uniform","undefined","undefined","undefined","22","22","45","22","22","NA","22","22","0","0","0","22","22","0","22","0","NA","22","0","Thu 25 Jul 2019 01:01:23 PM PDT","500","1000","The main experiment item","yes","NA","ABX_v3.osexp","/home/ubuntu/Desktop/panara","yes","no","mono","no","18","no","white","no","yes","768","22","22","/home/ubuntu/Desktop/panara/subject-113.csv","Jazzy James","3.1.3","5.2.5.wav","5.2.5.wav","5.2.3.wav","0","1","NA","1","NA","894","NA","894","NA","1365606","1","2","1024","2","48000","-16","experiment","5.2.3.wav","5.2.5.wav","5.2.5.wav","113","odd","1497477","1499972","1499472","1498722","NA","NA","1496476","1500704","541","NA","NA","1496474","1501599","NA","1496474","1366150","NA","1496477","543","New experiment","NA","0","0","0","yes","1024"
"undefined","undefined","undefined","undefined","black","no","legacy","0","uniform","undefined","undefined","undefined","23","23","47","23","23","NA","23","23","0","0","0","23","23","0","23","0","NA","23","0","Thu 25 Jul 2019 01:01:23 PM PDT","500","1000","The main experiment item","yes","NA","ABX_v3.osexp","/home/ubuntu/Desktop/panara","yes","no","mono","no","18","no","white","no","yes","768","23","23","/home/ubuntu/Desktop/panara/subject-113.csv","Jazzy James","3.1.3","2.1.4.wav","2.1.4.wav","2.1.2.wav","0","1","NA","1","NA","491","NA","491","NA","1365606","1","2","1024","2","48000","-16","experiment","2.1.2.wav","2.1.4.wav","2.1.4.wav","113","odd","1502782","1505333","1504833","1504057","NA","NA","1501782","1506083","541","NA","NA","1501780","1506575","NA","1501779","1366150","NA","1501782","543","New experiment","NA","0","0","0","yes","1024"
"undefined","undefined","undefined","undefined","black","no","legacy","0","uniform","undefined","undefined","undefined","24","24","49","24","24","NA","24","24","0","0","0","24","24","0","24","0","NA","24","0","Thu 25 Jul 2019 01:01:23 PM PDT","500","1000","The main experiment item","yes","NA","ABX_v3.osexp","/home/ubuntu/Desktop/panara","yes","no","mono","no","18","no","white","no","yes","768","24","24","/home/ubuntu/Desktop/panara/subject-113.csv","Jazzy James","3.1.3","4.1.4.wav","4.1.4.wav","4.1.2.wav","0","1","NA","1","NA","870","NA","870","NA","1365606","1","2","1024","2","48000","-16","experiment","4.1.2.wav","4.1.4.wav","4.1.4.wav","113","odd","1507747","1510200","1509700","1508970","NA","NA","1506747","1510960","541","NA","NA","1506745","1511830","NA","1506745","1366150","NA","1506747","543","New experiment","NA","0","0","0","yes","1024"
"undefined","undefined","undefined","undefined","black","no","legacy","0","uniform","undefined","undefined","undefined","25","25","51","25","25","NA","25","25","0","0","0","25","25","0","25","0","NA","25","0","Thu 25 Jul 2019 01:01:23 PM PDT","500","1000","The main experiment item","yes","NA","ABX_v3.osexp","/home/ubuntu/Desktop/panara","yes","no","mono","no","18","no","white","no","yes","768","25","25","/home/ubuntu/Desktop/panara/subject-113.csv","Jazzy James","3.1.3","1.1.5.wav","1.1.3.wav","1.1.3.wav","0","0","NA","0","NA","536","NA","536","NA","1365606","1","2","1024","2","48000","-16","experiment","1.1.3.wav","1.1.5.wav","1.1.3.wav","113","odd","1512982","1515569","1515069","1514260","NA","NA","1511982","1516373","541","NA","NA","1511980","1516910","NA","1511980","1366150","NA","1511982","543","New experiment","NA","0","0","0","yes","1024"
"undefined","undefined","undefined","undefined","black","no","legacy","0","uniform","undefined","undefined","undefined","26","26","53","26","26","NA","26","26","0","0","0","26","26","0","26","0","NA","26","0","Thu 25 Jul 2019 01:01:23 PM PDT","500","1000","The main experiment item","yes","NA","ABX_v3.osexp","/home/ubuntu/Desktop/panara","yes","no","mono","no","18","no","white","no","yes","768","26","26","/home/ubuntu/Desktop/panara/subject-113.csv","Jazzy James","3.1.3","3.1.4.wav","3.1.4.wav","3.1.2.wav","0","1","NA","1","NA","947","NA","947","NA","1365606","1","2","1024","2","48000","-16","experiment","3.1.2.wav","3.1.4.wav","3.1.4.wav","113","odd","1518141","1520702","1520202","1519423","NA","NA","1517141","1521498","541","NA","NA","1517138","1522446","NA","1517138","1366150","NA","1517141","543","New experiment","NA","0","0","0","yes","1024"
"undefined","undefined","undefined","undefined","black","no","legacy","0","uniform","undefined","undefined","undefined","27","27","55","27","27","NA","27","27","0","0","0","27","27","0","27","0","NA","27","0","Thu 25 Jul 2019 01:01:23 PM PDT","500","1000","The main experiment item","yes","NA","ABX_v3.osexp","/home/ubuntu/Desktop/panara","yes","no","mono","no","18","no","white","no","yes","768","27","27","/home/ubuntu/Desktop/panara/subject-113.csv","Jazzy James","3.1.3","1.2.3.wav","1.2.1.wav","1.2.1.wav","0","0","NA","0","NA","572","NA","572","NA","1365606","1","2","1024","2","48000","-16","experiment","1.2.1.wav","1.2.3.wav","1.2.1.wav","113","odd","1523643","1526222","1525722","1524925","NA","NA","1522642","1526993","541","NA","NA","1522640","1527565","NA","1522640","1366150","NA","1522643","543","New experiment","NA","0","0","0","yes","1024"
"undefined","undefined","undefined","undefined","black","no","legacy","0","uniform","undefined","undefined","undefined","28","28","57","28","28","NA","28","28","0","0","0","28","28","0","28","0","NA","28","0","Thu 25 Jul 2019 01:01:23 PM PDT","500","1000","The main experiment item","yes","NA","ABX_v3.osexp","/home/ubuntu/Desktop/panara","no","no","mono","no","18","no","white","no","yes","768","28","28","/home/ubuntu/Desktop/panara/subject-113.csv","Jazzy James","3.1.3","2.1.1.wav","2.1.3.wav","2.1.3.wav","0","0","NA","0","NA","538","NA","538","NA","1365606","1","2","1024","2","48000","-16","experiment","2.1.1.wav","2.1.3.wav","2.1.3.wav","113","odd","1528737","1531290","1530790","1530019","NA","NA","1527737","1532043","541","NA","NA","1527734","1532581","NA","1527734","1366150","NA","1527737","543","New experiment","NA","0","0","0","yes","1024"
"undefined","undefined","undefined","undefined","black","no","legacy","0","uniform","undefined","undefined","undefined","29","29","59","29","29","NA","29","29","0","0","0","29","29","0","29","0","NA","29","0","Thu 25 Jul 2019 01:01:23 PM PDT","500","1000","The main experiment item","yes","NA","ABX_v3.osexp","/home/ubuntu/Desktop/panara","yes","no","mono","no","18","no","white","no","yes","768","29","29","/home/ubuntu/Desktop/panara/subject-113.csv","Jazzy James","3.1.3","4.2.5.wav","4.2.3.wav","4.2.3.wav","0","0","NA","0","NA","1283","NA","1283","NA","1365606","1","2","1024","2","48000","-16","experiment","4.2.3.wav","4.2.5.wav","4.2.3.wav","113","odd","1533744","1536247","1535747","1534973","NA","NA","1532744","1536992","541","NA","NA","1532741","1538276","NA","1532741","1366150","NA","1532744","543","New experiment","NA","0","0","0","yes","1024"
"undefined","undefined","undefined","undefined","black","no","legacy","0","uniform","undefined","undefined","undefined","30","30","61","30","30","NA","30","30","0","0","0","30","30","0","30","0","NA","30","0","Thu 25 Jul 2019 01:01:23 PM PDT","500","1000","The main experiment item","yes","NA","ABX_v3.osexp","/home/ubuntu/Desktop/panara","no","no","mono","no","18","no","white","no","yes","768","30","30","/home/ubuntu/Desktop/panara/subject-113.csv","Jazzy James","3.1.3","3.1.3.wav","3.1.3.wav","3.1.5.wav","0","0","NA","0","NA","1657","NA","1657","NA","1365606","1","2","1024","2","48000","-16","experiment","3.1.3.wav","3.1.5.wav","3.1.3.wav","113","odd","1539460","1541983","1541483","1540718","NA","NA","1538459","1542755","541","NA","NA","1538457","1544412","NA","1538457","1366150","NA","1538460","543","New experiment","NA","0","0","0","yes","1024"
"undefined","undefined","undefined","undefined","black","no","legacy","0","uniform","undefined","undefined","undefined","31","31","63","31","31","NA","31","31","0","0","0","31","31","0","31","0","NA","31","0","Thu 25 Jul 2019 01:01:23 PM PDT","500","1000","The main experiment item","yes","NA","ABX_v3.osexp","/home/ubuntu/Desktop/panara","yes","no","mono","no","18","no","white","no","yes","768","31","31","/home/ubuntu/Desktop/panara/subject-113.csv","Jazzy James","3.1.3","3.2.3.wav","3.2.1.wav","3.2.1.wav","0","0","NA","0","NA","352","NA","352","NA","1365606","1","2","1024","2","48000","-16","experiment","3.2.1.wav","3.2.3.wav","3.2.1.wav","113","odd","1545596","1548128","1547628","1546854","NA","NA","1544596","1548907","541","NA","NA","1544593","1549259","NA","1544593","1366150","NA","1544596","543","New experiment","NA","0","0","0","yes","1024"
"undefined","undefined","undefined","undefined","black","no","legacy","0","uniform","undefined","undefined","undefined","32","32","65","32","32","NA","32","32","0","0","0","32","32","0","32","0","NA","32","0","Thu 25 Jul 2019 01:01:23 PM PDT","500","1000","The main experiment item","yes","NA","ABX_v3.osexp","/home/ubuntu/Desktop/panara","no","no","mono","no","18","no","white","no","yes","768","32","32","/home/ubuntu/Desktop/panara/subject-113.csv","Jazzy James","3.1.3","1.2.2.wav","1.2.2.wav","1.2.4.wav","0","1","NA","1","NA","635","NA","635","NA","1365606","1","2","1024","2","48000","-16","experiment","1.2.2.wav","1.2.4.wav","1.2.2.wav","113","odd","1550471","1553020","1552520","1551741","NA","NA","1549471","1553792","541","NA","NA","1549469","1554428","NA","1549469","1366150","NA","1549471","543","New experiment","NA","0","0","0","yes","1024"
"undefined","undefined","undefined","undefined","black","no","legacy","0","uniform","undefined","undefined","undefined","33","33","67","33","33","NA","33","33","0","0","0","33","33","0","33","0","NA","33","0","Thu 25 Jul 2019 01:01:23 PM PDT","500","1000","The main experiment item","yes","NA","ABX_v3.osexp","/home/ubuntu/Desktop/panara","yes","no","mono","no","18","no","white","no","yes","768","33","33","/home/ubuntu/Desktop/panara/subject-113.csv","Jazzy James","3.1.3","4.2.4.wav","4.2.2.wav","4.2.2.wav","0","0","NA","0","NA","1533","NA","1533","NA","1365606","1","2","1024","2","48000","-16","experiment","4.2.2.wav","4.2.4.wav","4.2.2.wav","113","odd","1555590","1558084","1557584","1556831","NA","NA","1554590","1558813","541","NA","NA","1554588","1560346","NA","1554588","1366150","NA","1554590","543","New experiment","NA","0","0","0","yes","1024"
"undefined","undefined","undefined","undefined","black","no","legacy","0","uniform","undefined","undefined","undefined","34","34","69","34","34","NA","34","34","0","0","0","34","34","0","34","0","NA","34","0","Thu 25 Jul 2019 01:01:23 PM PDT","500","1000","The main experiment item","yes","NA","ABX_v3.osexp","/home/ubuntu/Desktop/panara","yes","no","mono","no","18","no","white","no","yes","768","34","34","/home/ubuntu/Desktop/panara/subject-113.csv","Jazzy James","3.1.3","5.2.4.wav","5.2.4.wav","5.2.2.wav","0","1","NA","1","NA","1077","NA","1077","NA","1365606","1","2","1024","2","48000","-16","experiment","5.2.2.wav","5.2.4.wav","5.2.4.wav","113","odd","1561537","1564042","1563542","1562798","NA","NA","1560537","1564774","541","NA","NA","1560534","1565851","NA","1560534","1366150","NA","1560537","543","New experiment","NA","0","0","0","yes","1024"
"undefined","undefined","undefined","undefined","black","no","legacy","0","uniform","undefined","undefined","undefined","35","35","71","35","35","NA","35","35","0","0","0","35","35","0","35","0","NA","35","0","Thu 25 Jul 2019 01:01:23 PM PDT","500","1000","The main experiment item","yes","NA","ABX_v3.osexp","/home/ubuntu/Desktop/panara","no","no","mono","no","18","no","white","no","yes","768","35","35","/home/ubuntu/Desktop/panara/subject-113.csv","Jazzy James","3.1.3","3.1.3.wav","3.1.5.wav","3.1.5.wav","0","1","NA","1","NA","2005","NA","2005","NA","1365606","1","2","1024","2","48000","-16","experiment","3.1.3.wav","3.1.5.wav","3.1.5.wav","113","odd","1567013","1569526","1569026","1568247","NA","NA","1566013","1570308","541","NA","NA","1566010","1572314","NA","1566010","1366150","NA","1566013","543","New experiment","NA","0","0","0","yes","1024"
"undefined","undefined","undefined","undefined","black","no","legacy","0","uniform","undefined","undefined","undefined","36","36","73","36","36","NA","36","36","0","0","0","36","36","0","36","0","NA","36","0","Thu 25 Jul 2019 01:01:23 PM PDT","500","1000","The main experiment item","yes","NA","ABX_v3.osexp","/home/ubuntu/Desktop/panara","yes","no","mono","no","18","no","white","no","yes","768","36","36","/home/ubuntu/Desktop/panara/subject-113.csv","Jazzy James","3.1.3","4.1.3.wav","4.1.3.wav","4.1.1.wav","0","1","NA","1","NA","699","NA","699","NA","1365606","1","2","1024","2","48000","-16","experiment","4.1.1.wav","4.1.3.wav","4.1.3.wav","113","odd","1573511","1575987","1575487","1574746","NA","NA","1572510","1576711","541","NA","NA","1572508","1577410","NA","1572508","1366150","NA","1572511","543","New experiment","NA","0","0","0","yes","1024"
"undefined","undefined","undefined","undefined","black","no","legacy","0","uniform","undefined","undefined","undefined","37","37","75","37","37","NA","37","37","0","0","0","37","37","0","37","0","NA","37","0","Thu 25 Jul 2019 01:01:23 PM PDT","500","1000","The main experiment item","yes","NA","ABX_v3.osexp","/home/ubuntu/Desktop/panara","no","no","mono","no","18","no","white","no","yes","768","37","37","/home/ubuntu/Desktop/panara/subject-113.csv","Jazzy James","3.1.3","1.1.3.wav","1.1.5.wav","1.1.5.wav","0","0","NA","0","NA","295","NA","295","NA","1365606","1","2","1024","2","48000","-16","experiment","1.1.3.wav","1.1.5.wav","1.1.5.wav","113","odd","1578588","1581152","1580652","1579882","NA","NA","1577588","1581954","541","NA","NA","1577586","1582249","NA","1577586","1366150","NA","1577588","543","New experiment","NA","0","0","0","yes","1024"
"undefined","undefined","undefined","undefined","black","no","legacy","0","uniform","undefined","undefined","undefined","38","38","77","38","38","NA","38","38","0","0","0","38","38","0","38","0","NA","38","0","Thu 25 Jul 2019 01:01:23 PM PDT","500","1000","The main experiment item","yes","NA","ABX_v3.osexp","/home/ubuntu/Desktop/panara","no","no","mono","no","18","no","white","no","yes","768","38","38","/home/ubuntu/Desktop/panara/subject-113.csv","Jazzy James","3.1.3","2.2.3.wav","2.2.5.wav","2.2.5.wav","0","0","NA","0","NA","433","NA","433","NA","1365606","1","2","1024","2","48000","-16","experiment","2.2.3.wav","2.2.5.wav","2.2.5.wav","113","odd","1583421","1585887","1585387","1584655","NA","NA","1582420","1586647","541","NA","NA","1582417","1587081","NA","1582417","1366150","NA","1582421","543","New experiment","NA","0","0","0","yes","1024"
"undefined","undefined","undefined","undefined","black","no","legacy","0","uniform","undefined","undefined","undefined","39","39","79","39","39","NA","39","39","0","0","0","39","39","0","39","0","NA","39","0","Thu 25 Jul 2019 01:01:23 PM PDT","500","1000","The main experiment item","yes","NA","ABX_v3.osexp","/home/ubuntu/Desktop/panara","yes","no","mono","no","18","no","white","no","yes","768","39","39","/home/ubuntu/Desktop/panara/subject-113.csv","Jazzy James","3.1.3","2.1.5.wav","2.1.3.wav","2.1.3.wav","0","0","NA","0","NA","367","NA","367","NA","1365606","1","2","1024","2","48000","-16","experiment","2.1.3.wav","2.1.5.wav","2.1.3.wav","113","odd","1588248","1590787","1590287","1589511","NA","NA","1587248","1591562","541","NA","NA","1587245","1591930","NA","1587245","1366150","NA","1587248","543","New experiment","NA","0","0","0","yes","1024"
"undefined","undefined","undefined","undefined","black","no","legacy","0","uniform","undefined","undefined","undefined","40","40","81","40","40","NA","40","40","0","0","0","40","40","0","40","0","NA","40","0","Thu 25 Jul 2019 01:01:23 PM PDT","500","1000","The main experiment item","yes","NA","ABX_v3.osexp","/home/ubuntu/Desktop/panara","no","no","mono","no","18","no","white","no","yes","768","40","40","/home/ubuntu/Desktop/panara/subject-113.csv","Jazzy James","3.1.3","3.2.1.wav","3.2.3.wav","3.2.3.wav","0","0","NA","0","NA","2160","NA","2160","NA","1365606","1","2","1024","2","48000","-16","experiment","3.2.1.wav","3.2.3.wav","3.2.3.wav","113","odd","1593113","1595607","1595107","1594356","NA","NA","1592112","1596369","541","NA","NA","1592110","1598529","NA","1592110","1366150","NA","1592113","543","New experiment","NA","0","0","0","yes","1024"
"undefined","undefined","undefined","undefined","black","no","legacy","0","uniform","undefined","undefined","undefined","41","41","83","41","41","NA","41","41","0","0","0","41","41","0","41","0","NA","41","0","Thu 25 Jul 2019 01:01:23 PM PDT","500","1000","The main experiment item","yes","NA","ABX_v3.osexp","/home/ubuntu/Desktop/panara","yes","no","mono","no","18","no","white","no","yes","768","41","41","/home/ubuntu/Desktop/panara/subject-113.csv","Jazzy James","3.1.3","4.2.3.wav","4.2.3.wav","4.2.1.wav","0","1","NA","1","NA","519","NA","519","NA","1365606","1","2","1024","2","48000","-16","experiment","4.2.1.wav","4.2.3.wav","4.2.3.wav","113","odd","1599700","1602230","1601730","1600965","NA","NA","1598700","1602977","541","NA","NA","1598697","1603497","NA","1598697","1366150","NA","1598700","543","New experiment","NA","0","0","0","yes","1024"
"undefined","undefined","undefined","undefined","black","no","legacy","0","uniform","undefined","undefined","undefined","42","42","85","42","42","NA","42","42","0","0","0","42","42","0","42","0","NA","42","0","Thu 25 Jul 2019 01:01:23 PM PDT","500","1000","The main experiment item","yes","NA","ABX_v3.osexp","/home/ubuntu/Desktop/panara","no","no","mono","no","18","no","white","no","yes","768","42","42","/home/ubuntu/Desktop/panara/subject-113.csv","Jazzy James","3.1.3","5.2.2.wav","5.2.2.wav","5.2.4.wav","0","1","NA","1","NA","1158","NA","1158","NA","1365606","1","2","1024","2","48000","-16","experiment","5.2.2.wav","5.2.4.wav","5.2.2.wav","113","odd","1604695","1607152","1606652","1605928","NA","NA","1603695","1607905","541","NA","NA","1603693","1609064","NA","1603693","1366150","NA","1603695","543","New experiment","NA","0","0","0","yes","1024"
"undefined","undefined","undefined","undefined","black","no","legacy","0","uniform","undefined","undefined","undefined","43","43","87","43","43","NA","43","43","0","0","0","43","43","0","43","0","NA","43","0","Thu 25 Jul 2019 01:01:23 PM PDT","500","1000","The main experiment item","yes","NA","ABX_v3.osexp","/home/ubuntu/Desktop/panara","no","no","mono","no","18","no","white","no","yes","768","43","43","/home/ubuntu/Desktop/panara/subject-113.csv","Jazzy James","3.1.3","5.2.1.wav","5.2.1.wav","5.2.3.wav","0","1","NA","1","NA","894","NA","894","NA","1365606","1","2","1024","2","48000","-16","experiment","5.2.1.wav","5.2.3.wav","5.2.1.wav","113","odd","1610251","1612697","1612197","1611475","NA","NA","1609250","1613433","541","NA","NA","1609248","1614327","NA","1609248","1366150","NA","1609251","543","New experiment","NA","0","0","0","yes","1024"
"undefined","undefined","undefined","undefined","black","no","legacy","0","uniform","undefined","undefined","undefined","44","44","89","44","44","NA","44","44","0","0","0","44","44","0","44","0","NA","44","0","Thu 25 Jul 2019 01:01:23 PM PDT","500","1000","The main experiment item","yes","NA","ABX_v3.osexp","/home/ubuntu/Desktop/panara","yes","no","mono","no","18","no","white","no","yes","768","44","44","/home/ubuntu/Desktop/panara/subject-113.csv","Jazzy James","3.1.3","2.1.4.wav","2.1.2.wav","2.1.2.wav","0","1","NA","1","NA","1045","NA","1045","NA","1365606","1","2","1024","2","48000","-16","experiment","2.1.2.wav","2.1.4.wav","2.1.2.wav","113","odd","1615509","1618013","1617513","1616756","NA","NA","1614508","1618786","541","NA","NA","1614506","1619832","NA","1614506","1366150","NA","1614509","543","New experiment","NA","0","0","0","yes","1024"
"undefined","undefined","undefined","undefined","black","no","legacy","0","uniform","undefined","undefined","undefined","45","45","91","45","45","NA","45","45","0","0","0","45","45","0","45","0","NA","45","0","Thu 25 Jul 2019 01:01:23 PM PDT","500","1000","The main experiment item","yes","NA","ABX_v3.osexp","/home/ubuntu/Desktop/panara","no","no","mono","no","18","no","white","no","yes","768","45","45","/home/ubuntu/Desktop/panara/subject-113.csv","Jazzy James","3.1.3","3.1.2.wav","3.1.2.wav","3.1.4.wav","0","0","NA","0","NA","1664","NA","1664","NA","1365606","1","2","1024","2","48000","-16","experiment","3.1.2.wav","3.1.4.wav","3.1.2.wav","113","odd","1621001","1623538","1623038","1622270","NA","NA","1620001","1624342","541","NA","NA","1619999","1626007","NA","1619999","1366150","NA","1620001","543","New experiment","NA","0","0","0","yes","1024"
"undefined","undefined","undefined","undefined","black","no","legacy","0","uniform","undefined","undefined","undefined","46","46","93","46","46","NA","46","46","0","0","0","46","46","0","46","0","NA","46","0","Thu 25 Jul 2019 01:01:23 PM PDT","500","1000","The main experiment item","yes","NA","ABX_v3.osexp","/home/ubuntu/Desktop/panara","no","no","mono","no","18","no","white","no","yes","768","46","46","/home/ubuntu/Desktop/panara/subject-113.csv","Jazzy James","3.1.3","3.2.3.wav","3.2.5.wav","3.2.5.wav","0","0","NA","0","NA","1920","NA","1920","NA","1365606","1","2","1024","2","48000","-16","experiment","3.2.3.wav","3.2.5.wav","3.2.5.wav","113","odd","1627180","1629741","1629241","1628458","NA","NA","1626179","1630519","541","NA","NA","1626176","1632439","NA","1626176","1366150","NA","1626180","543","New experiment","NA","0","0","0","yes","1024"
"undefined","undefined","undefined","undefined","black","no","legacy","0","uniform","undefined","undefined","undefined","47","47","95","47","47","NA","47","47","0","0","0","47","47","0","47","0","NA","47","0","Thu 25 Jul 2019 01:01:23 PM PDT","500","1000","The main experiment item","yes","NA","ABX_v3.osexp","/home/ubuntu/Desktop/panara","yes","no","mono","no","18","no","white","no","yes","768","47","47","/home/ubuntu/Desktop/panara/subject-113.csv","Jazzy James","3.1.3","2.2.5.wav","2.2.3.wav","2.2.3.wav","0","1","NA","1","NA","823","NA","823","NA","1365606","1","2","1024","2","48000","-16","experiment","2.2.3.wav","2.2.5.wav","2.2.3.wav","113","odd","1633616","1636097","1635597","1634847","NA","NA","1632615","1636831","541","NA","NA","1632613","1637655","NA","1632613","1366150","NA","1632616","543","New experiment","NA","0","0","0","yes","1024"
"undefined","undefined","undefined","undefined","black","no","legacy","0","uniform","undefined","undefined","undefined","48","48","97","48","48","NA","48","48","0","0","0","48","48","0","48","0","NA","48","0","Thu 25 Jul 2019 01:01:23 PM PDT","500","1000","The main experiment item","yes","NA","ABX_v3.osexp","/home/ubuntu/Desktop/panara","yes","no","mono","no","18","no","white","no","yes","768","48","48","/home/ubuntu/Desktop/panara/subject-113.csv","Jazzy James","3.1.3","3.2.5.wav","3.2.3.wav","3.2.3.wav","0","1","NA","1","NA","1802","NA","1802","NA","1365606","1","2","1024","2","48000","-16","experiment","3.2.3.wav","3.2.5.wav","3.2.3.wav","113","odd","1638839","1641365","1640865","1640106","NA","NA","1637838","1642124","541","NA","NA","1637836","1643927","NA","1637836","1366150","NA","1637839","543","New experiment","NA","0","0","0","yes","1024"
"undefined","undefined","undefined","undefined","black","no","legacy","0","uniform","undefined","undefined","undefined","49","49","99","49","49","NA","49","49","0","0","0","49","49","0","49","0","NA","49","0","Thu 25 Jul 2019 01:01:23 PM PDT","500","1000","The main experiment item","yes","NA","ABX_v3.osexp","/home/ubuntu/Desktop/panara","no","no","mono","no","18","no","white","no","yes","768","49","49","/home/ubuntu/Desktop/panara/subject-113.csv","Jazzy James","3.1.3","4.1.1.wav","4.1.1.wav","4.1.3.wav","0","1","NA","1","NA","637","NA","637","NA","1365606","1","2","1024","2","48000","-16","experiment","4.1.1.wav","4.1.3.wav","4.1.1.wav","113","odd","1645087","1647590","1647090","1646339","NA","NA","1644087","1648321","541","NA","NA","1644085","1648958","NA","1644085","1366150","NA","1644087","543","New experiment","NA","0","0","0","yes","1024"
"undefined","undefined","undefined","undefined","black","no","legacy","0","uniform","undefined","undefined","undefined","50","50","101","50","50","NA","50","50","0","0","0","50","50","0","50","0","NA","50","0","Thu 25 Jul 2019 01:01:23 PM PDT","500","1000","The main experiment item","yes","NA","ABX_v3.osexp","/home/ubuntu/Desktop/panara","yes","no","mono","no","18","no","white","no","yes","768","50","50","/home/ubuntu/Desktop/panara/subject-113.csv","Jazzy James","3.1.3","5.2.3.wav","5.2.3.wav","5.2.1.wav","0","1","0","1","NA","606","23634","606","NA","1365606","1","2","1024","2","48000","-16","experiment","5.2.1.wav","5.2.3.wav","5.2.3.wav","113","odd","1673759","1676213","1675713","1674971","1649122","NA","1672759","1676942","541","NA","NA","1649120","1677549","NA","1649120","1366150","NA","1672759","543","New experiment","NA","0","0","0","yes","1024"
"undefined","undefined","undefined","undefined","black","no","legacy","0","uniform","undefined","undefined","undefined","51","51","103","51","51","NA","51","51","0","0","0","51","51","0","51","0","NA","51","0","Thu 25 Jul 2019 01:01:23 PM PDT","500","1000","The main experiment item","yes","NA","ABX_v3.osexp","/home/ubuntu/Desktop/panara","no","no","mono","no","18","no","white","no","yes","768","51","51","/home/ubuntu/Desktop/panara/subject-113.csv","Jazzy James","3.1.3","1.1.1.wav","1.1.1.wav","1.1.3.wav","0","1","0","1","NA","575","23634","575","NA","1365606","1","2","1024","2","48000","-16","experiment","1.1.1.wav","1.1.3.wav","1.1.1.wav","113","odd","1678724","1681312","1680812","1680011","1649122","NA","1677723","1682117","541","NA","NA","1677721","1682692","NA","1677721","1366150","NA","1677724","543","New experiment","NA","0","0","0","yes","1024"
"undefined","undefined","undefined","undefined","black","no","legacy","0","uniform","undefined","undefined","undefined","52","52","105","52","52","NA","52","52","0","0","0","52","52","0","52","0","NA","52","0","Thu 25 Jul 2019 01:01:23 PM PDT","500","1000","The main experiment item","yes","NA","ABX_v3.osexp","/home/ubuntu/Desktop/panara","no","no","mono","no","18","no","white","no","yes","768","52","52","/home/ubuntu/Desktop/panara/subject-113.csv","Jazzy James","3.1.3","1.2.2.wav","1.2.4.wav","1.2.4.wav","0","0","0","0","NA","347","23634","347","NA","1365606","1","2","1024","2","48000","-16","experiment","1.2.2.wav","1.2.4.wav","1.2.4.wav","113","odd","1683854","1686398","1685898","1685131","1649122","NA","1682854","1687153","541","NA","NA","1682852","1687500","NA","1682852","1366150","NA","1682854","543","New experiment","NA","0","0","0","yes","1024"
"undefined","undefined","undefined","undefined","black","no","legacy","0","uniform","undefined","undefined","undefined","53","53","107","53","53","NA","53","53","0","0","0","53","53","0","53","0","NA","53","0","Thu 25 Jul 2019 01:01:23 PM PDT","500","1000","The main experiment item","yes","NA","ABX_v3.osexp","/home/ubuntu/Desktop/panara","no","no","mono","no","18","no","white","no","yes","768","53","53","/home/ubuntu/Desktop/panara/subject-113.csv","Jazzy James","3.1.3","4.1.2.wav","4.1.2.wav","4.1.4.wav","0","1","0","1","NA","1127","23634","1127","NA","1365606","1","2","1024","2","48000","-16","experiment","4.1.2.wav","4.1.4.wav","4.1.2.wav","113","odd","1688659","1691129","1690629","1689901","1649122","NA","1687658","1691860","541","NA","NA","1687656","1692988","NA","1687656","1366150","NA","1687659","543","New experiment","NA","0","0","0","yes","1024"
"undefined","undefined","undefined","undefined","black","no","legacy","0","uniform","undefined","undefined","undefined","54","54","109","54","54","NA","54","54","0","0","0","54","54","0","54","0","NA","54","0","Thu 25 Jul 2019 01:01:23 PM PDT","500","1000","The main experiment item","yes","NA","ABX_v3.osexp","/home/ubuntu/Desktop/panara","no","no","mono","no","18","no","white","no","yes","768","0","53","/home/ubuntu/Desktop/panara/subject-113.csv","Jazzy James","3.1.3","3.1.3.wav","4.1.3.wav","4.1.5.wav","0","1","0","1","NA","897","23634","897","NA","1365606","1","2","1024","2","48000","-16","experiment","3.1.3.wav","4.1.5.wav","4.1.3.wav","113","odd","1694177","1696667","1696166","1695440","1649122","NA","1693177","1697417","541","NA","NA","1693175","1698314","1693099","1693175","1366150","NA","1693177","543","New experiment","NA","0","0","0","yes","1024"
"undefined","undefined","undefined","undefined","black","no","legacy","0","uniform","undefined","undefined","undefined","55","55","111","55","55","NA","55","55","0","0","0","55","55","0","55","0","NA","55","0","Thu 25 Jul 2019 01:01:23 PM PDT","500","1000","The main experiment item","yes","NA","ABX_v3.osexp","/home/ubuntu/Desktop/panara","no","no","mono","no","18","no","white","no","yes","768","1","53","/home/ubuntu/Desktop/panara/subject-113.csv","Jazzy James","3.1.3","1.2.1.wav","1.1.1.wav","1.1.3.wav","0","1","0","1","NA","433","23634","433","NA","1365606","1","2","1024","2","48000","-16","experiment","1.2.1.wav","1.1.3.wav","1.1.1.wav","113","odd","1699481","1702040","1701540","1700747","1649122","NA","1698481","1702857","541","NA","NA","1698479","1703290","1693099","1698479","1366150","NA","1698481","543","New experiment","NA","0","0","0","yes","1024"
"undefined","undefined","undefined","undefined","black","no","legacy","0","uniform","undefined","undefined","undefined","56","56","113","56","56","NA","56","56","0","0","0","56","56","0","56","0","NA","56","0","Thu 25 Jul 2019 01:01:23 PM PDT","500","1000","The main experiment item","yes","NA","ABX_v3.osexp","/home/ubuntu/Desktop/panara","yes","no","mono","no","18","no","white","no","yes","768","2","53","/home/ubuntu/Desktop/panara/subject-113.csv","Jazzy James","3.1.3","3.2.5.wav","1.2.5.wav","1.2.3.wav","0","0","0","0","NA","475","23634","475","NA","1365606","1","2","1024","2","48000","-16","experiment","1.2.3.wav","3.2.5.wav","1.2.5.wav","113","odd","1704460","1707017","1706517","1705738","1649122","NA","1703460","1707798","541","NA","NA","1703457","1708274","1693099","1703457","1366150","NA","1703460","543","New experiment","NA","0","0","0","yes","1024"
"undefined","undefined","undefined","undefined","black","no","legacy","0","uniform","undefined","undefined","undefined","57","57","115","57","57","NA","57","57","0","0","0","57","57","0","57","0","NA","57","0","Thu 25 Jul 2019 01:01:23 PM PDT","500","1000","The main experiment item","yes","NA","ABX_v3.osexp","/home/ubuntu/Desktop/panara","yes","no","mono","no","18","no","white","no","yes","768","3","53","/home/ubuntu/Desktop/panara/subject-113.csv","Jazzy James","3.1.3","3.1.4.wav","1.1.4.wav","1.1.2.wav","0","0","0","0","NA","1892","23634","1892","NA","1365606","1","2","1024","2","48000","-16","experiment","1.1.2.wav","3.1.4.wav","1.1.4.wav","113","odd","1709456","1712007","1711506","1710732","1649122","NA","1708456","1712806","541","NA","NA","1708454","1714699","1693099","1708454","1366150","NA","1708456","543","New experiment","NA","0","0","0","yes","1024"
"undefined","undefined","undefined","undefined","black","no","legacy","0","uniform","undefined","undefined","undefined","58","58","117","58","58","NA","58","58","0","0","0","58","58","0","58","0","NA","58","0","Thu 25 Jul 2019 01:01:23 PM PDT","500","1000","The main experiment item","yes","NA","ABX_v3.osexp","/home/ubuntu/Desktop/panara","yes","no","mono","no","18","no","white","no","yes","768","4","53","/home/ubuntu/Desktop/panara/subject-113.csv","Jazzy James","3.1.3","2.1.4.wav","2.1.2.wav","2.2.2.wav","0","0","0","0","NA","527","23634","527","NA","1365606","1","2","1024","2","48000","-16","experiment","2.2.2.wav","2.1.4.wav","2.1.2.wav","113","odd","1715866","1718393","1717893","1717140","1649122","NA","1714866","1719123","541","NA","NA","1714863","1719650","1693099","1714863","1366150","NA","1714866","543","New experiment","NA","0","0","0","yes","1024"
"undefined","undefined","undefined","undefined","black","no","legacy","0","uniform","undefined","undefined","undefined","59","59","119","59","59","NA","59","59","0","0","0","59","59","0","59","0","NA","59","0","Thu 25 Jul 2019 01:01:23 PM PDT","500","1000","The main experiment item","yes","NA","ABX_v3.osexp","/home/ubuntu/Desktop/panara","no","no","mono","no","18","no","white","no","yes","768","5","53","/home/ubuntu/Desktop/panara/subject-113.csv","Jazzy James","3.1.3","4.1.1.wav","2.1.1.wav","2.1.3.wav","0","0","0","0","NA","1296","23634","1296","NA","1365606","1","2","1024","2","48000","-16","experiment","4.1.1.wav","2.1.3.wav","2.1.1.wav","113","odd","1720817","1723302","1722802","1722029","1649122","NA","1719817","1724048","541","NA","NA","1719815","1725345","1693099","1719815","1366150","NA","1719817","543","New experiment","NA","0","0","0","yes","1024"
"undefined","undefined","undefined","undefined","black","no","legacy","0","uniform","undefined","undefined","undefined","60","60","121","60","60","NA","60","60","0","0","0","60","60","0","60","0","NA","60","0","Thu 25 Jul 2019 01:01:23 PM PDT","500","1000","The main experiment item","yes","NA","ABX_v3.osexp","/home/ubuntu/Desktop/panara","no","no","mono","no","18","no","white","no","yes","768","6","53","/home/ubuntu/Desktop/panara/subject-113.csv","Jazzy James","3.1.3","1.2.2.wav","3.2.2.wav","3.2.4.wav","0","0","0","0","NA","366","23634","366","NA","1365606","1","2","1024","2","48000","-16","experiment","1.2.2.wav","3.2.4.wav","3.2.2.wav","113","odd","1726503","1729048","1728548","1727771","1649122","NA","1725503","1729826","541","NA","NA","1725500","1730193","1693099","1725500","1366150","NA","1725503","543","New experiment","NA","0","0","0","yes","1024"
"undefined","undefined","undefined","undefined","black","no","legacy","0","uniform","undefined","undefined","undefined","61","61","123","61","61","NA","61","61","0","0","0","61","61","0","61","0","NA","61","0","Thu 25 Jul 2019 01:01:23 PM PDT","500","1000","The main experiment item","yes","NA","ABX_v3.osexp","/home/ubuntu/Desktop/panara","yes","no","mono","no","18","no","white","no","yes","768","7","53","/home/ubuntu/Desktop/panara/subject-113.csv","Jazzy James","3.1.3","4.2.5.wav","4.1.5.wav","4.1.3.wav","0","0","0","0","NA","502","23634","502","NA","1365606","1","2","1024","2","48000","-16","experiment","4.1.3.wav","4.2.5.wav","4.1.5.wav","113","odd","1731385","1733877","1733377","1732642","1649122","NA","1730385","1734610","541","NA","NA","1730383","1735112","1693099","1730383","1366150","NA","1730385","543","New experiment","NA","0","0","0","yes","1024"
"undefined","undefined","undefined","undefined","black","no","legacy","0","uniform","undefined","undefined","undefined","62","62","125","62","62","NA","62","62","0","0","0","62","62","0","62","0","NA","62","0","Thu 25 Jul 2019 01:01:23 PM PDT","500","1000","The main experiment item","yes","NA","ABX_v3.osexp","/home/ubuntu/Desktop/panara","no","no","mono","no","18","no","white","no","yes","768","8","53","/home/ubuntu/Desktop/panara/subject-113.csv","Jazzy James","3.1.3","3.2.2.wav","1.2.2.wav","1.2.4.wav","0","0","0","0","NA","1142","23634","1142","NA","1365606","1","2","1024","2","48000","-16","experiment","3.2.2.wav","1.2.4.wav","1.2.2.wav","113","odd","1736303","1738877","1738377","1737585","1649122","NA","1735303","1739626","541","NA","NA","1735300","1740769","1693099","1735300","1366150","NA","1735303","543","New experiment","NA","0","0","0","yes","1024"
"undefined","undefined","undefined","undefined","black","no","legacy","0","uniform","undefined","undefined","undefined","63","63","127","63","63","NA","63","63","0","0","0","63","63","0","63","0","NA","63","0","Thu 25 Jul 2019 01:01:23 PM PDT","500","1000","The main experiment item","yes","NA","ABX_v3.osexp","/home/ubuntu/Desktop/panara","yes","no","mono","no","18","no","white","no","yes","768","9","53","/home/ubuntu/Desktop/panara/subject-113.csv","Jazzy James","3.1.3","3.2.5.wav","3.2.3.wav","4.2.3.wav","0","1","0","1","NA","1496","23634","1496","NA","1365606","1","2","1024","2","48000","-16","experiment","4.2.3.wav","3.2.5.wav","3.2.3.wav","113","odd","1741959","1744491","1743991","1743239","1649122","NA","1740959","1745272","541","NA","NA","1740956","1746769","1693099","1740956","1366150","NA","1740959","543","New experiment","NA","0","0","0","yes","1024"
"undefined","undefined","undefined","undefined","black","no","legacy","0","uniform","undefined","undefined","undefined","64","64","129","64","64","NA","64","64","0","0","0","64","64","0","64","0","NA","64","0","Thu 25 Jul 2019 01:01:23 PM PDT","500","1000","The main experiment item","yes","NA","ABX_v3.osexp","/home/ubuntu/Desktop/panara","no","no","mono","no","18","no","white","no","yes","768","10","53","/home/ubuntu/Desktop/panara/subject-113.csv","Jazzy James","3.1.3","3.1.3.wav","3.1.5.wav","3.2.5.wav","0","1","0","1","NA","1244","23634","1244","NA","1365606","1","2","1024","2","48000","-16","experiment","3.1.3.wav","3.2.5.wav","3.1.5.wav","113","odd","1747931","1750463","1749963","1749169","1649122","NA","1746931","1751260","541","NA","NA","1746928","1752504","1693099","1746928","1366150","NA","1746931","543","New experiment","NA","0","0","0","yes","1024"
"undefined","undefined","undefined","undefined","black","no","legacy","0","uniform","undefined","undefined","undefined","65","65","131","65","65","NA","65","65","0","0","0","65","65","0","65","0","NA","65","0","Thu 25 Jul 2019 01:01:23 PM PDT","500","1000","The main experiment item","yes","NA","ABX_v3.osexp","/home/ubuntu/Desktop/panara","yes","no","mono","no","18","no","white","no","yes","768","11","53","/home/ubuntu/Desktop/panara/subject-113.csv","Jazzy James","3.1.3","1.1.3.wav","1.1.1.wav","2.1.1.wav","0","1","0","1","NA","547","23634","547","NA","1365606","1","2","1024","2","48000","-16","experiment","2.1.1.wav","1.1.3.wav","1.1.1.wav","113","odd","1753706","1756346","1755846","1755028","1649122","NA","1752705","1757100","541","NA","NA","1752703","1757648","1693099","1752702","1366150","NA","1752706","543","New experiment","NA","0","0","0","yes","1024"
"undefined","undefined","undefined","undefined","black","no","legacy","0","uniform","undefined","undefined","undefined","66","66","133","66","66","NA","66","66","0","0","0","66","66","0","66","0","NA","66","0","Thu 25 Jul 2019 01:01:23 PM PDT","500","1000","The main experiment item","yes","NA","ABX_v3.osexp","/home/ubuntu/Desktop/panara","no","no","mono","no","18","no","white","no","yes","768","12","53","/home/ubuntu/Desktop/panara/subject-113.csv","Jazzy James","3.1.3","2.2.2.wav","2.2.4.wav","2.1.4.wav","0","1","0","1","NA","598","23634","598","NA","1365606","1","2","1024","2","48000","-16","experiment","2.2.2.wav","2.1.4.wav","2.2.4.wav","113","odd","1758809","1761287","1760787","1760060","1649122","NA","1757809","1762041","541","NA","NA","1757806","1762640","1693099","1757806","1366150","NA","1757809","543","New experiment","NA","0","0","0","yes","1024"
"undefined","undefined","undefined","undefined","black","no","legacy","0","uniform","undefined","undefined","undefined","67","67","135","67","67","NA","67","67","0","0","0","67","67","0","67","0","NA","67","0","Thu 25 Jul 2019 01:01:23 PM PDT","500","1000","The main experiment item","yes","NA","ABX_v3.osexp","/home/ubuntu/Desktop/panara","no","no","mono","no","18","no","white","no","yes","768","13","53","/home/ubuntu/Desktop/panara/subject-113.csv","Jazzy James","3.1.3","2.2.1.wav","1.2.1.wav","1.2.3.wav","0","0","0","0","NA","510","23634","510","NA","1365606","1","2","1024","2","48000","-16","experiment","2.2.1.wav","1.2.3.wav","1.2.1.wav","113","odd","1763771","1766307","1765807","1765010","1649122","NA","1762771","1767089","541","NA","NA","1762769","1767599","1693099","1762768","1366150","NA","1762771","543","New experiment","NA","0","0","0","yes","1024"
"undefined","undefined","undefined","undefined","black","no","legacy","0","uniform","undefined","undefined","undefined","68","68","137","68","68","NA","68","68","0","0","0","68","68","0","68","0","NA","68","0","Thu 25 Jul 2019 01:01:23 PM PDT","500","1000","The main experiment item","yes","NA","ABX_v3.osexp","/home/ubuntu/Desktop/panara","yes","no","mono","no","18","no","white","no","yes","768","14","53","/home/ubuntu/Desktop/panara/subject-113.csv","Jazzy James","3.1.3","4.1.3.wav","4.2.3.wav","4.2.1.wav","0","1","0","1","NA","524","23634","524","NA","1365606","1","2","1024","2","48000","-16","experiment","4.2.1.wav","4.1.3.wav","4.2.3.wav","113","odd","1768758","1771274","1770774","1769996","1649122","NA","1767758","1772011","541","NA","NA","1767755","1772535","1693099","1767755","1366150","NA","1767758","543","New experiment","NA","0","0","0","yes","1024"
"undefined","undefined","undefined","undefined","black","no","legacy","0","uniform","undefined","undefined","undefined","69","69","139","69","69","NA","69","69","0","0","0","69","69","0","69","0","NA","69","0","Thu 25 Jul 2019 01:01:23 PM PDT","500","1000","The main experiment item","yes","NA","ABX_v3.osexp","/home/ubuntu/Desktop/panara","yes","no","mono","no","18","no","white","no","yes","768","15","53","/home/ubuntu/Desktop/panara/subject-113.csv","Jazzy James","3.1.3","4.2.3.wav","4.2.1.wav","2.2.1.wav","0","0","0","0","NA","774","23634","774","NA","1365606","1","2","1024","2","48000","-16","experiment","2.2.1.wav","4.2.3.wav","4.2.1.wav","113","odd","1773699","1776172","1775672","1774940","1649122","NA","1772699","1776928","541","NA","NA","1772697","1777703","1693099","1772697","1366150","NA","1772699","543","New experiment","NA","0","0","0","yes","1024"
"undefined","undefined","undefined","undefined","black","no","legacy","0","uniform","undefined","undefined","undefined","70","70","141","70","70","NA","70","70","0","0","0","70","70","0","70","0","NA","70","0","Thu 25 Jul 2019 01:01:23 PM PDT","500","1000","The main experiment item","yes","NA","ABX_v3.osexp","/home/ubuntu/Desktop/panara","no","no","mono","no","18","no","white","no","yes","768","16","53","/home/ubuntu/Desktop/panara/subject-113.csv","Jazzy James","3.1.3","4.1.3.wav","4.1.5.wav","3.1.5.wav","0","0","0","0","NA","487","23634","487","NA","1365606","1","2","1024","2","48000","-16","experiment","4.1.3.wav","3.1.5.wav","4.1.5.wav","113","odd","1778887","1781358","1780858","1780122","1649122","NA","1777887","1782135","541","NA","NA","1777884","1782623","1693099","1777884","1366150","NA","1777887","543","New experiment","NA","0","0","0","yes","1024"
"undefined","undefined","undefined","undefined","black","no","legacy","0","uniform","undefined","undefined","undefined","71","71","143","71","71","NA","71","71","0","0","0","71","71","0","71","0","NA","71","0","Thu 25 Jul 2019 01:01:23 PM PDT","500","1000","The main experiment item","yes","NA","ABX_v3.osexp","/home/ubuntu/Desktop/panara","no","no","mono","no","18","no","white","no","yes","768","17","53","/home/ubuntu/Desktop/panara/subject-113.csv","Jazzy James","3.1.3","2.1.2.wav","1.1.2.wav","1.1.4.wav","0","1","0","1","NA","326","23634","326","NA","1365606","1","2","1024","2","48000","-16","experiment","2.1.2.wav","1.1.4.wav","1.1.2.wav","113","odd","1783770","1786324","1785824","1785025","1649122","NA","1782770","1787120","541","NA","NA","1782768","1787446","1693099","1782768","1366150","NA","1782770","543","New experiment","NA","0","0","0","yes","1024"
"undefined","undefined","undefined","undefined","black","no","legacy","0","uniform","undefined","undefined","undefined","72","72","145","72","72","NA","72","72","0","0","0","72","72","0","72","0","NA","72","0","Thu 25 Jul 2019 01:01:23 PM PDT","500","1000","The main experiment item","yes","NA","ABX_v3.osexp","/home/ubuntu/Desktop/panara","yes","no","mono","no","18","no","white","no","yes","768","18","53","/home/ubuntu/Desktop/panara/subject-113.csv","Jazzy James","3.1.3","3.1.3.wav","3.2.3.wav","3.2.1.wav","0","1","0","1","NA","671","23634","671","NA","1365606","1","2","1024","2","48000","-16","experiment","3.2.1.wav","3.1.3.wav","3.2.3.wav","113","odd","1788603","1791104","1790604","1789853","1649122","NA","1787603","1791862","541","NA","NA","1787600","1792534","1693099","1787600","1366150","NA","1787603","543","New experiment","NA","0","0","0","yes","1024"
"undefined","undefined","undefined","undefined","black","no","legacy","0","uniform","undefined","undefined","undefined","73","73","147","73","73","NA","73","73","0","0","0","73","73","0","73","0","NA","73","0","Thu 25 Jul 2019 01:01:23 PM PDT","500","1000","The main experiment item","yes","NA","ABX_v3.osexp","/home/ubuntu/Desktop/panara","yes","no","mono","no","18","no","white","no","yes","768","19","53","/home/ubuntu/Desktop/panara/subject-113.csv","Jazzy James","3.1.3","1.2.5.wav","1.2.3.wav","1.1.3.wav","0","1","0","1","NA","2446","23634","2446","NA","1365606","1","2","1024","2","48000","-16","experiment","1.1.3.wav","1.2.5.wav","1.2.3.wav","113","odd","1793690","1796261","1795761","1794966","1649122","NA","1792690","1797087","541","NA","NA","1792688","1799534","1693099","1792688","1366150","NA","1792690","543","New experiment","NA","0","0","0","yes","1024"
"undefined","undefined","undefined","undefined","black","no","legacy","0","uniform","undefined","undefined","undefined","74","74","149","74","74","NA","74","74","0","0","0","74","74","0","74","0","NA","74","0","Thu 25 Jul 2019 01:01:23 PM PDT","500","1000","The main experiment item","yes","NA","ABX_v3.osexp","/home/ubuntu/Desktop/panara","no","no","mono","no","18","no","white","no","yes","768","20","53","/home/ubuntu/Desktop/panara/subject-113.csv","Jazzy James","3.1.3","4.1.1.wav","4.1.3.wav","2.1.3.wav","0","1","0","1","NA","1378","23634","1378","NA","1365606","1","2","1024","2","48000","-16","experiment","4.1.1.wav","2.1.3.wav","4.1.3.wav","113","odd","1800710","1803196","1802696","1801941","1649122","NA","1799710","1803954","541","NA","NA","1799707","1805332","1693099","1799707","1366150","NA","1799710","543","New experiment","NA","0","0","0","yes","1024"
"undefined","undefined","undefined","undefined","black","no","legacy","0","uniform","undefined","undefined","undefined","75","75","151","75","75","NA","75","75","0","0","0","75","75","0","75","0","NA","75","0","Thu 25 Jul 2019 01:01:23 PM PDT","500","1000","The main experiment item","yes","NA","ABX_v3.osexp","/home/ubuntu/Desktop/panara","yes","no","mono","no","18","no","white","no","yes","768","21","53","/home/ubuntu/Desktop/panara/subject-113.csv","Jazzy James","3.1.3","2.1.5.wav","1.1.5.wav","1.1.3.wav","0","1","0","1","NA","699","23634","699","NA","1365606","1","2","1024","2","48000","-16","experiment","1.1.3.wav","2.1.5.wav","1.1.5.wav","113","odd","1806536","1809079","1808579","1807803","1649122","NA","1805535","1809881","541","NA","NA","1805533","1810581","1693099","1805533","1366150","NA","1805536","543","New experiment","NA","0","0","0","yes","1024"
"undefined","undefined","undefined","undefined","black","no","legacy","0","uniform","undefined","undefined","undefined","76","76","153","76","76","NA","76","76","0","0","0","76","76","0","76","0","NA","76","0","Thu 25 Jul 2019 01:01:23 PM PDT","500","1000","The main experiment item","yes","NA","ABX_v3.osexp","/home/ubuntu/Desktop/panara","no","no","mono","no","18","no","white","no","yes","768","22","53","/home/ubuntu/Desktop/panara/subject-113.csv","Jazzy James","3.1.3","1.2.3.wav","3.2.3.wav","3.2.5.wav","0","0","0","0","NA","461","23634","461","NA","1365606","1","2","1024","2","48000","-16","experiment","1.2.3.wav","3.2.5.wav","3.2.3.wav","113","odd","1811760","1814309","1813809","1813035","1649122","NA","1810760","1815087","541","NA","NA","1810757","1815549","1693099","1810757","1366150","NA","1810760","543","New experiment","NA","0","0","0","yes","1024"
"undefined","undefined","undefined","undefined","black","no","legacy","0","uniform","undefined","undefined","undefined","77","77","155","77","77","NA","77","77","0","0","0","77","77","0","77","0","NA","77","0","Thu 25 Jul 2019 01:01:23 PM PDT","500","1000","The main experiment item","yes","NA","ABX_v3.osexp","/home/ubuntu/Desktop/panara","yes","no","mono","no","18","no","white","no","yes","768","23","53","/home/ubuntu/Desktop/panara/subject-113.csv","Jazzy James","3.1.3","2.2.4.wav","1.2.4.wav","1.2.2.wav","0","0","0","0","NA","365","23634","365","NA","1365606","1","2","1024","2","48000","-16","experiment","1.2.2.wav","2.2.4.wav","1.2.4.wav","113","odd","1816732","1819239","1818739","1817969","1649122","NA","1815732","1820006","541","NA","NA","1815729","1820371","1693099","1815729","1366150","NA","1815732","543","New experiment","NA","0","0","0","yes","1024"
"undefined","undefined","undefined","undefined","black","no","legacy","0","uniform","undefined","undefined","undefined","78","78","157","78","78","NA","78","78","0","0","0","78","78","0","78","0","NA","78","0","Thu 25 Jul 2019 01:01:23 PM PDT","500","1000","The main experiment item","yes","NA","ABX_v3.osexp","/home/ubuntu/Desktop/panara","yes","no","mono","no","18","no","white","no","yes","768","24","53","/home/ubuntu/Desktop/panara/subject-113.csv","Jazzy James","3.1.3","2.2.4.wav","4.2.4.wav","4.2.2.wav","0","1","0","1","NA","2097","23634","2097","NA","1365606","1","2","1024","2","48000","-16","experiment","4.2.2.wav","2.2.4.wav","4.2.4.wav","113","odd","1821537","1824013","1823513","1822758","1649122","NA","1820536","1824738","541","NA","NA","1820534","1826836","1693099","1820534","1366150","NA","1820537","543","New experiment","NA","0","0","0","yes","1024"
"undefined","undefined","undefined","undefined","black","no","legacy","0","uniform","undefined","undefined","undefined","79","79","159","79","79","NA","79","79","0","0","0","79","79","0","79","0","NA","79","0","Thu 25 Jul 2019 01:01:23 PM PDT","500","1000","The main experiment item","yes","NA","ABX_v3.osexp","/home/ubuntu/Desktop/panara","yes","no","mono","no","18","no","white","no","yes","768","25","53","/home/ubuntu/Desktop/panara/subject-113.csv","Jazzy James","3.1.3","2.2.5.wav","4.2.5.wav","4.2.3.wav","0","0","0","0","NA","1703","23634","1703","NA","1365606","1","2","1024","2","48000","-16","experiment","4.2.3.wav","2.2.5.wav","4.2.5.wav","113","odd","1828045","1830534","1830034","1829284","1649122","NA","1827045","1831284","541","NA","NA","1827042","1832988","1693099","1827042","1366150","NA","1827045","543","New experiment","NA","0","0","0","yes","1024"
"undefined","undefined","undefined","undefined","black","no","legacy","0","uniform","undefined","undefined","undefined","80","80","161","80","80","NA","80","80","0","0","0","80","80","0","80","0","NA","80","0","Thu 25 Jul 2019 01:01:23 PM PDT","500","1000","The main experiment item","yes","NA","ABX_v3.osexp","/home/ubuntu/Desktop/panara","yes","no","mono","no","18","no","white","no","yes","768","26","53","/home/ubuntu/Desktop/panara/subject-113.csv","Jazzy James","3.1.3","3.1.4.wav","3.2.4.wav","3.2.2.wav","0","0","0","0","NA","949","23634","949","NA","1365606","1","2","1024","2","48000","-16","experiment","3.2.2.wav","3.1.4.wav","3.2.4.wav","113","odd","1834167","1836692","1836192","1835440","1649122","NA","1833166","1837470","541","NA","NA","1833164","1838419","1693099","1833164","1366150","NA","1833167","543","New experiment","NA","0","0","0","yes","1024"
"undefined","undefined","undefined","undefined","black","no","legacy","0","uniform","undefined","undefined","undefined","81","81","163","81","81","NA","81","81","0","0","0","81","81","0","81","0","NA","81","0","Thu 25 Jul 2019 01:01:23 PM PDT","500","1000","The main experiment item","yes","NA","ABX_v3.osexp","/home/ubuntu/Desktop/panara","yes","no","mono","no","18","no","white","no","yes","768","27","53","/home/ubuntu/Desktop/panara/subject-113.csv","Jazzy James","3.1.3","2.2.3.wav","2.1.3.wav","2.1.1.wav","0","0","0","0","NA","1464","23634","1464","NA","1365606","1","2","1024","2","48000","-16","experiment","2.1.1.wav","2.2.3.wav","2.1.3.wav","113","odd","1839596","1842106","1841606","1840827","1649122","NA","1838595","1842889","541","NA","NA","1838593","1844354","1693099","1838593","1366150","NA","1838595","543","New experiment","NA","0","0","0","yes","1024"
"undefined","undefined","undefined","undefined","black","no","legacy","0","uniform","undefined","undefined","undefined","82","82","165","82","82","NA","82","82","0","0","0","82","82","0","82","0","NA","82","0","Thu 25 Jul 2019 01:01:23 PM PDT","500","1000","The main experiment item","yes","NA","ABX_v3.osexp","/home/ubuntu/Desktop/panara","no","no","mono","no","18","no","white","no","yes","768","28","53","/home/ubuntu/Desktop/panara/subject-113.csv","Jazzy James","3.1.3","3.1.1.wav","4.1.1.wav","4.1.3.wav","0","0","0","0","NA","2611","23634","2611","NA","1365606","1","2","1024","2","48000","-16","experiment","3.1.1.wav","4.1.3.wav","4.1.1.wav","113","odd","1845513","1848002","1847502","1846770","1649122","NA","1844512","1848734","541","NA","NA","1844510","1851346","1693099","1844510","1366150","NA","1844513","543","New experiment","NA","0","0","0","yes","1024"
"undefined","undefined","undefined","undefined","black","no","legacy","0","uniform","undefined","undefined","undefined","83","83","167","83","83","NA","83","83","0","0","0","83","83","0","83","0","NA","83","0","Thu 25 Jul 2019 01:01:23 PM PDT","500","1000","The main experiment item","yes","NA","ABX_v3.osexp","/home/ubuntu/Desktop/panara","no","no","mono","no","18","no","white","no","yes","768","29","53","/home/ubuntu/Desktop/panara/subject-113.csv","Jazzy James","3.1.3","3.1.2.wav","3.1.4.wav","3.2.4.wav","0","1","0","1","NA","1213","23634","1213","NA","1365606","1","2","1024","2","48000","-16","experiment","3.1.2.wav","3.2.4.wav","3.1.4.wav","113","odd","1852477","1855015","1854515","1853740","1649122","NA","1851477","1855773","541","NA","NA","1851474","1856986","1693099","1851474","1366150","NA","1851477","543","New experiment","NA","0","0","0","yes","1024"
"undefined","undefined","undefined","undefined","black","no","legacy","0","uniform","undefined","undefined","undefined","84","84","169","84","84","NA","84","84","0","0","0","84","84","0","84","0","NA","84","0","Thu 25 Jul 2019 01:01:23 PM PDT","500","1000","The main experiment item","yes","NA","ABX_v3.osexp","/home/ubuntu/Desktop/panara","no","no","mono","no","18","no","white","no","yes","768","30","53","/home/ubuntu/Desktop/panara/subject-113.csv","Jazzy James","3.1.3","2.2.3.wav","2.2.5.wav","1.2.5.wav","0","1","0","1","NA","890","23634","890","NA","1365606","1","2","1024","2","48000","-16","experiment","2.2.3.wav","1.2.5.wav","2.2.5.wav","113","odd","1858158","1860623","1860123","1859390","1649122","NA","1857157","1861422","541","NA","NA","1857155","1862313","1693099","1857155","1366150","NA","1857158","543","New experiment","NA","0","0","0","yes","1024"
"undefined","undefined","undefined","undefined","black","no","legacy","0","uniform","undefined","undefined","undefined","85","85","171","85","85","NA","85","85","0","0","0","85","85","0","85","0","NA","85","0","Thu 25 Jul 2019 01:01:23 PM PDT","500","1000","The main experiment item","yes","NA","ABX_v3.osexp","/home/ubuntu/Desktop/panara","no","no","mono","no","18","no","white","no","yes","768","31","53","/home/ubuntu/Desktop/panara/subject-113.csv","Jazzy James","3.1.3","2.2.3.wav","2.2.5.wav","2.1.5.wav","0","0","0","0","NA","428","23634","428","NA","1365606","1","2","1024","2","48000","-16","experiment","2.2.3.wav","2.1.5.wav","2.2.5.wav","113","odd","1863493","1865946","1865446","1864720","1649122","NA","1862493","1866716","541","NA","NA","1862491","1867145","1693099","1862491","1366150","NA","1862493","543","New experiment","NA","0","0","0","yes","1024"
"undefined","undefined","undefined","undefined","black","no","legacy","0","uniform","undefined","undefined","undefined","86","86","173","86","86","NA","86","86","0","0","0","86","86","0","86","0","NA","86","0","Thu 25 Jul 2019 01:01:23 PM PDT","500","1000","The main experiment item","yes","NA","ABX_v3.osexp","/home/ubuntu/Desktop/panara","yes","no","mono","no","18","no","white","no","yes","768","32","53","/home/ubuntu/Desktop/panara/subject-113.csv","Jazzy James","3.1.3","4.1.4.wav","4.1.2.wav","4.2.2.wav","0","0","0","0","NA","505","23634","505","NA","1365606","1","2","1024","2","48000","-16","experiment","4.2.2.wav","4.1.4.wav","4.1.2.wav","113","odd","1868311","1870762","1870262","1869529","1649122","NA","1867310","1871495","541","NA","NA","1867308","1872000","1693099","1867308","1366150","NA","1867311","543","New experiment","NA","0","0","0","yes","1024"
"undefined","undefined","undefined","undefined","black","no","legacy","0","uniform","undefined","undefined","undefined","87","87","175","87","87","NA","87","87","0","0","0","87","87","0","87","0","NA","87","0","Thu 25 Jul 2019 01:01:23 PM PDT","500","1000","The main experiment item","yes","NA","ABX_v3.osexp","/home/ubuntu/Desktop/panara","yes","no","mono","no","18","no","white","no","yes","768","33","53","/home/ubuntu/Desktop/panara/subject-113.csv","Jazzy James","3.1.3","4.1.4.wav","2.1.4.wav","2.1.2.wav","0","0","0","0","NA","380","23634","380","NA","1365606","1","2","1024","2","48000","-16","experiment","2.1.2.wav","4.1.4.wav","2.1.4.wav","113","odd","1873165","1875666","1875165","1874415","1649122","NA","1872165","1876445","541","NA","NA","1872163","1876825","1693099","1872163","1366150","NA","1872165","543","New experiment","NA","0","0","0","yes","1024"
"undefined","undefined","undefined","undefined","black","no","legacy","0","uniform","undefined","undefined","undefined","88","88","177","88","88","NA","88","88","0","0","0","88","88","0","88","0","NA","88","0","Thu 25 Jul 2019 01:01:23 PM PDT","500","1000","The main experiment item","yes","NA","ABX_v3.osexp","/home/ubuntu/Desktop/panara","yes","no","mono","no","18","no","white","no","yes","768","34","53","/home/ubuntu/Desktop/panara/subject-113.csv","Jazzy James","3.1.3","2.2.4.wav","2.2.2.wav","1.2.2.wav","0","0","0","0","NA","1693","23634","1693","NA","1365606","1","2","1024","2","48000","-16","experiment","1.2.2.wav","2.2.4.wav","2.2.2.wav","113","odd","1877989","1880463","1879963","1879237","1649122","NA","1876989","1881243","541","NA","NA","1876987","1882937","1693099","1876987","1366150","NA","1876989","543","New experiment","NA","0","0","0","yes","1024"
"undefined","undefined","undefined","undefined","black","no","legacy","0","uniform","undefined","undefined","undefined","89","89","179","89","89","NA","89","89","0","0","0","89","89","0","89","0","NA","89","0","Thu 25 Jul 2019 01:01:23 PM PDT","500","1000","The main experiment item","yes","NA","ABX_v3.osexp","/home/ubuntu/Desktop/panara","yes","no","mono","no","18","no","white","no","yes","768","35","53","/home/ubuntu/Desktop/panara/subject-113.csv","Jazzy James","3.1.3","3.1.4.wav","3.1.2.wav","1.1.2.wav","0","1","0","1","NA","609","23634","609","NA","1365606","1","2","1024","2","48000","-16","experiment","1.1.2.wav","3.1.4.wav","3.1.2.wav","113","odd","1884100","1886643","1886143","1885369","1649122","NA","1883100","1887446","541","NA","NA","1883097","1888056","1693099","1883097","1366150","NA","1883100","543","New experiment","NA","0","0","0","yes","1024"
"undefined","undefined","undefined","undefined","black","no","legacy","0","uniform","undefined","undefined","undefined","90","90","181","90","90","NA","90","90","0","0","0","90","90","0","90","0","NA","90","0","Thu 25 Jul 2019 01:01:23 PM PDT","500","1000","The main experiment item","yes","NA","ABX_v3.osexp","/home/ubuntu/Desktop/panara","no","no","mono","no","18","no","white","no","yes","768","36","53","/home/ubuntu/Desktop/panara/subject-113.csv","Jazzy James","3.1.3","3.2.3.wav","1.2.3.wav","1.2.5.wav","0","0","0","0","NA","877","23634","877","NA","1365606","1","2","1024","2","48000","-16","experiment","3.2.3.wav","1.2.5.wav","1.2.3.wav","113","odd","1889207","1891741","1891241","1890445","1649122","NA","1888207","1892507","541","NA","NA","1888204","1893384","1693099","1888204","1366150","NA","1888207","543","New experiment","NA","0","0","0","yes","1024"
"undefined","undefined","undefined","undefined","black","no","legacy","0","uniform","undefined","undefined","undefined","91","91","183","91","91","NA","91","91","0","0","0","91","91","0","91","0","NA","91","0","Thu 25 Jul 2019 01:01:23 PM PDT","500","1000","The main experiment item","yes","NA","ABX_v3.osexp","/home/ubuntu/Desktop/panara","no","no","mono","no","18","no","white","no","yes","768","37","53","/home/ubuntu/Desktop/panara/subject-113.csv","Jazzy James","3.1.3","3.2.1.wav","3.2.3.wav","4.2.3.wav","0","1","0","1","NA","1098","23634","1098","NA","1365606","1","2","1024","2","48000","-16","experiment","3.2.1.wav","4.2.3.wav","3.2.3.wav","113","odd","1894547","1897057","1896557","1895783","1649122","NA","1893547","1897837","541","NA","NA","1893544","1898936","1693099","1893544","1366150","NA","1893547","543","New experiment","NA","0","0","0","yes","1024"
"undefined","undefined","undefined","undefined","black","no","legacy","0","uniform","undefined","undefined","undefined","92","92","185","92","92","NA","92","92","0","0","0","92","92","0","92","0","NA","92","0","Thu 25 Jul 2019 01:01:23 PM PDT","500","1000","The main experiment item","yes","NA","ABX_v3.osexp","/home/ubuntu/Desktop/panara","no","no","mono","no","18","no","white","no","yes","768","38","53","/home/ubuntu/Desktop/panara/subject-113.csv","Jazzy James","3.1.3","4.1.2.wav","4.1.4.wav","3.1.4.wav","0","1","0","1","NA","831","23634","831","NA","1365606","1","2","1024","2","48000","-16","experiment","4.1.2.wav","3.1.4.wav","4.1.4.wav","113","odd","1900102","1902589","1902089","1901345","1649122","NA","1899102","1903367","541","NA","NA","1899099","1904199","1693099","1899099","1366150","NA","1899102","543","New experiment","NA","0","0","0","yes","1024"
"undefined","undefined","undefined","undefined","black","no","legacy","0","uniform","undefined","undefined","undefined","93","93","187","93","93","NA","93","93","0","0","0","93","93","0","93","0","NA","93","0","Thu 25 Jul 2019 01:01:23 PM PDT","500","1000","The main experiment item","yes","NA","ABX_v3.osexp","/home/ubuntu/Desktop/panara","yes","no","mono","no","18","no","white","no","yes","768","39","53","/home/ubuntu/Desktop/panara/subject-113.csv","Jazzy James","3.1.3","3.1.4.wav","3.1.2.wav","4.1.2.wav","0","1","0","1","NA","2134","23634","2134","NA","1365606","1","2","1024","2","48000","-16","experiment","4.1.2.wav","3.1.4.wav","3.1.2.wav","113","odd","1905369","1907915","1907415","1906640","1649122","NA","1904368","1908673","541","NA","NA","1904366","1910807","1693099","1904366","1366150","NA","1904369","543","New experiment","NA","0","0","0","yes","1024"
"undefined","undefined","undefined","undefined","black","no","legacy","0","uniform","undefined","undefined","undefined","94","94","189","94","94","NA","94","94","0","0","0","94","94","0","94","0","NA","94","0","Thu 25 Jul 2019 01:01:23 PM PDT","500","1000","The main experiment item","yes","NA","ABX_v3.osexp","/home/ubuntu/Desktop/panara","no","no","mono","no","18","no","white","no","yes","768","40","53","/home/ubuntu/Desktop/panara/subject-113.csv","Jazzy James","3.1.3","3.1.3.wav","1.1.3.wav","1.1.5.wav","0","0","0","0","NA","498","23634","498","NA","1365606","1","2","1024","2","48000","-16","experiment","3.1.3.wav","1.1.5.wav","1.1.3.wav","113","odd","1911971","1914567","1914067","1913249","1649122","NA","1910971","1915372","541","NA","NA","1910968","1915871","1693099","1910968","1366150","NA","1910971","543","New experiment","NA","0","0","0","yes","1024"
"undefined","undefined","undefined","undefined","black","no","legacy","0","uniform","undefined","undefined","undefined","95","95","191","95","95","NA","95","95","0","0","0","95","95","0","95","0","NA","95","0","Thu 25 Jul 2019 01:01:23 PM PDT","500","1000","The main experiment item","yes","NA","ABX_v3.osexp","/home/ubuntu/Desktop/panara","yes","no","mono","no","18","no","white","no","yes","768","41","53","/home/ubuntu/Desktop/panara/subject-113.csv","Jazzy James","3.1.3","2.2.5.wav","1.2.5.wav","1.2.3.wav","0","0","0","0","NA","514","23634","514","NA","1365606","1","2","1024","2","48000","-16","experiment","1.2.3.wav","2.2.5.wav","1.2.5.wav","113","odd","1917037","1919541","1919041","1918267","1649122","NA","1916037","1920340","541","NA","NA","1916035","1920855","1693099","1916034","1366150","NA","1916037","543","New experiment","NA","0","0","0","yes","1024"
"undefined","undefined","undefined","undefined","black","no","legacy","0","uniform","undefined","undefined","undefined","96","96","193","96","96","NA","96","96","0","0","0","96","96","0","96","0","NA","96","0","Thu 25 Jul 2019 01:01:23 PM PDT","500","1000","The main experiment item","yes","NA","ABX_v3.osexp","/home/ubuntu/Desktop/panara","no","no","mono","no","18","no","white","no","yes","768","42","53","/home/ubuntu/Desktop/panara/subject-113.csv","Jazzy James","3.1.3","4.1.2.wav","4.1.4.wav","4.2.4.wav","0","0","0","0","NA","659","23634","659","NA","1365606","1","2","1024","2","48000","-16","experiment","4.1.2.wav","4.2.4.wav","4.1.4.wav","113","odd","1922014","1924471","1923971","1923253","1649122","NA","1921014","1925227","541","NA","NA","1921012","1925886","1693099","1921012","1366150","NA","1921014","543","New experiment","NA","0","0","0","yes","1024"
"undefined","undefined","undefined","undefined","black","no","legacy","0","uniform","undefined","undefined","undefined","97","97","195","97","97","NA","97","97","0","0","0","97","97","0","97","0","NA","97","0","Thu 25 Jul 2019 01:01:23 PM PDT","500","1000","The main experiment item","yes","NA","ABX_v3.osexp","/home/ubuntu/Desktop/panara","no","no","mono","no","18","no","white","no","yes","768","43","53","/home/ubuntu/Desktop/panara/subject-113.csv","Jazzy James","3.1.3","2.1.1.wav","2.2.1.wav","2.2.3.wav","0","1","0","1","NA","505","23634","505","NA","1365606","1","2","1024","2","48000","-16","experiment","2.1.1.wav","2.2.3.wav","2.2.1.wav","113","odd","1927048","1929529","1929029","1928300","1649122","NA","1926047","1930276","541","NA","NA","1926045","1930782","1693099","1926044","1366150","NA","1926047","543","New experiment","NA","0","0","0","yes","1024"
"undefined","undefined","undefined","undefined","black","no","legacy","0","uniform","undefined","undefined","undefined","98","98","197","98","98","NA","98","98","0","0","0","98","98","0","98","0","NA","98","0","Thu 25 Jul 2019 01:01:23 PM PDT","500","1000","The main experiment item","yes","NA","ABX_v3.osexp","/home/ubuntu/Desktop/panara","yes","no","mono","no","18","no","white","no","yes","768","44","53","/home/ubuntu/Desktop/panara/subject-113.csv","Jazzy James","3.1.3","2.2.3.wav","2.2.1.wav","1.2.1.wav","0","1","0","1","NA","1402","23634","1402","NA","1365606","1","2","1024","2","48000","-16","experiment","1.2.1.wav","2.2.3.wav","2.2.1.wav","113","odd","1931970","1934447","1933947","1933195","1649122","NA","1930970","1935219","541","NA","NA","1930967","1936622","1693099","1930967","1366150","NA","1930970","543","New experiment","NA","0","0","0","yes","1024"
"undefined","undefined","undefined","undefined","black","no","legacy","0","uniform","undefined","undefined","undefined","99","99","199","99","99","NA","99","99","0","0","0","99","99","0","99","0","NA","99","0","Thu 25 Jul 2019 01:01:23 PM PDT","500","1000","The main experiment item","yes","NA","ABX_v3.osexp","/home/ubuntu/Desktop/panara","no","no","mono","no","18","no","white","no","yes","768","45","53","/home/ubuntu/Desktop/panara/subject-113.csv","Jazzy James","3.1.3","4.2.1.wav","4.1.1.wav","4.1.3.wav","0","1","0","1","NA","4055","23634","4055","NA","1365606","1","2","1024","2","48000","-16","experiment","4.2.1.wav","4.1.3.wav","4.1.1.wav","113","odd","1937801","1940281","1939781","1939056","1649122","NA","1936801","1941037","541","NA","NA","1936799","1945092","1693099","1936798","1366150","NA","1936801","543","New experiment","NA","0","0","0","yes","1024"
"undefined","undefined","undefined","undefined","black","no","legacy","0","uniform","undefined","undefined","undefined","100","100","201","100","100","NA","100","100","0","0","0","100","100","0","100","0","NA","100","0","Thu 25 Jul 2019 01:01:23 PM PDT","500","1000","The main experiment item","yes","NA","ABX_v3.osexp","/home/ubuntu/Desktop/panara","yes","no","mono","no","18","no","white","no","yes","768","46","53","/home/ubuntu/Desktop/panara/subject-113.csv","Jazzy James","3.1.3","1.1.5.wav","3.1.5.wav","3.1.3.wav","0","0","1","0","NA","578","14274","578","NA","1365606","1","2","1024","2","48000","-16","experiment","3.1.3.wav","1.1.5.wav","3.1.5.wav","113","odd","1960542","1963123","1962623","1961842","1945266","NA","1959542","1963897","541","NA","NA","1945264","1964476","1693099","1945264","1366150","NA","1959542","543","New experiment","NA","0","0","0","yes","1024"
"undefined","undefined","undefined","undefined","black","no","legacy","0","uniform","undefined","undefined","undefined","101","101","203","101","101","NA","101","101","0","0","0","101","101","0","101","0","NA","101","0","Thu 25 Jul 2019 01:01:23 PM PDT","500","1000","The main experiment item","yes","NA","ABX_v3.osexp","/home/ubuntu/Desktop/panara","no","no","mono","no","18","no","white","no","yes","768","47","53","/home/ubuntu/Desktop/panara/subject-113.csv","Jazzy James","3.1.3","1.1.2.wav","1.1.4.wav","2.1.4.wav","0","0","1","0","NA","1561","14274","1561","NA","1365606","1","2","1024","2","48000","-16","experiment","1.1.2.wav","2.1.4.wav","1.1.4.wav","113","odd","1965659","1968222","1967722","1966946","1945266","NA","1964659","1969002","541","NA","NA","1964656","1970564","1693099","1964656","1366150","NA","1964659","543","New experiment","NA","0","0","0","yes","1024"
"undefined","undefined","undefined","undefined","black","no","legacy","0","uniform","undefined","undefined","undefined","102","102","205","102","102","NA","102","102","0","0","0","102","102","0","102","0","NA","102","0","Thu 25 Jul 2019 01:01:23 PM PDT","500","1000","The main experiment item","yes","NA","ABX_v3.osexp","/home/ubuntu/Desktop/panara","yes","no","mono","no","18","no","white","no","yes","768","48","53","/home/ubuntu/Desktop/panara/subject-113.csv","Jazzy James","3.1.3","2.1.5.wav","4.1.5.wav","4.1.3.wav","0","1","1","1","NA","1097","14274","1097","NA","1365606","1","2","1024","2","48000","-16","experiment","4.1.3.wav","2.1.5.wav","4.1.5.wav","113","odd","1971736","1974224","1973724","1972995","1945266","NA","1970736","1974961","541","NA","NA","1970733","1976058","1693099","1970733","1366150","NA","1970736","543","New experiment","NA","0","0","0","yes","1024"
"undefined","undefined","undefined","undefined","black","no","legacy","0","uniform","undefined","undefined","undefined","103","103","207","103","103","NA","103","103","0","0","0","103","103","0","103","0","NA","103","0","Thu 25 Jul 2019 01:01:23 PM PDT","500","1000","The main experiment item","yes","NA","ABX_v3.osexp","/home/ubuntu/Desktop/panara","yes","no","mono","no","18","no","white","no","yes","768","49","53","/home/ubuntu/Desktop/panara/subject-113.csv","Jazzy James","3.1.3","1.2.4.wav","2.2.4.wav","2.2.2.wav","0","0","1","0","NA","826","14274","826","NA","1365606","1","2","1024","2","48000","-16","experiment","2.2.2.wav","1.2.4.wav","2.2.4.wav","113","odd","1977231","1979739","1979239","1978487","1945266","NA","1976231","1980495","541","NA","NA","1976229","1981322","1693099","1976229","1366150","NA","1976231","543","New experiment","NA","0","0","0","yes","1024"
"undefined","undefined","undefined","undefined","black","no","legacy","0","uniform","undefined","undefined","undefined","104","104","209","104","104","NA","104","104","0","0","0","104","104","0","104","0","NA","104","0","Thu 25 Jul 2019 01:01:23 PM PDT","500","1000","The main experiment item","yes","NA","ABX_v3.osexp","/home/ubuntu/Desktop/panara","yes","no","mono","no","18","no","white","no","yes","768","50","53","/home/ubuntu/Desktop/panara/subject-113.csv","Jazzy James","3.1.3","4.1.4.wav","4.1.2.wav","2.1.2.wav","0","1","1","1","NA","464","14274","464","NA","1365606","1","2","1024","2","48000","-16","experiment","2.1.2.wav","4.1.4.wav","4.1.2.wav","113","odd","1982517","1985007","1984507","1983765","1945266","NA","1981517","1985785","541","NA","NA","1981514","1986250","1693099","1981514","1366150","NA","1981517","543","New experiment","NA","0","0","0","yes","1024"
"undefined","undefined","undefined","undefined","black","no","legacy","0","uniform","undefined","undefined","undefined","105","105","211","105","105","NA","105","105","0","0","0","105","105","0","105","0","NA","105","0","Thu 25 Jul 2019 01:01:23 PM PDT","500","1000","The main experiment item","yes","NA","ABX_v3.osexp","/home/ubuntu/Desktop/panara","no","no","mono","no","18","no","white","no","yes","768","51","53","/home/ubuntu/Desktop/panara/subject-113.csv","Jazzy James","3.1.3","4.2.2.wav","2.2.2.wav","2.2.4.wav","0","0","1","0","NA","367","14274","367","NA","1365606","1","2","1024","2","48000","-16","experiment","4.2.2.wav","2.2.4.wav","2.2.2.wav","113","odd","1987432","1989913","1989413","1988663","1945266","NA","1986431","1990642","541","NA","NA","1986429","1991010","1693099","1986429","1366150","NA","1986432","543","New experiment","NA","0","0","0","yes","1024"
"undefined","undefined","undefined","undefined","black","no","legacy","0","uniform","undefined","undefined","undefined","106","106","213","106","106","NA","106","106","0","0","0","106","106","0","106","0","NA","106","0","Thu 25 Jul 2019 01:01:23 PM PDT","500","1000","The main experiment item","yes","NA","ABX_v3.osexp","/home/ubuntu/Desktop/panara","yes","no","mono","no","18","no","white","no","yes","768","52","53","/home/ubuntu/Desktop/panara/subject-113.csv","Jazzy James","3.1.3","4.1.4.wav","4.1.2.wav","3.1.2.wav","0","0","1","0","NA","929","14274","929","NA","1365606","1","2","1024","2","48000","-16","experiment","3.1.2.wav","4.1.4.wav","4.1.2.wav","113","odd","1992165","1994632","1994132","1993405","1945266","NA","1991165","1995432","541","NA","NA","1991163","1996361","1693099","1991163","1366150","NA","1991165","543","New experiment","NA","0","0","0","yes","1024"
"undefined","undefined","undefined","undefined","black","no","legacy","0","uniform","undefined","undefined","undefined","107","107","215","107","107","NA","107","107","0","0","0","107","107","0","107","0","NA","107","0","Thu 25 Jul 2019 01:01:23 PM PDT","500","1000","The main experiment item","yes","NA","ABX_v3.osexp","/home/ubuntu/Desktop/panara","yes","no","mono","no","18","no","white","no","yes","768","53","53","/home/ubuntu/Desktop/panara/subject-113.csv","Jazzy James","3.1.3","3.1.3.wav","1.1.3.wav","1.1.1.wav","0","0","1","0","NA","540","14274","540","NA","1365606","1","2","1024","2","48000","-16","experiment","1.1.1.wav","3.1.3.wav","1.1.3.wav","113","odd","1997544","2000135","1999635","1998810","1945266","NA","1996544","2000957","541","NA","NA","1996542","2001498","1693099","1996542","1366150","NA","1996544","543","New experiment","NA","0","0","0","yes","1024"
"undefined","undefined","undefined","undefined","black","no","legacy","0","uniform","undefined","undefined","undefined","108","108","217","108","108","NA","108","108","0","0","0","108","108","0","108","0","NA","108","0","Thu 25 Jul 2019 01:01:23 PM PDT","500","1000","The main experiment item","yes","NA","ABX_v3.osexp","/home/ubuntu/Desktop/panara","no","no","mono","no","18","no","white","no","yes","768","54","53","/home/ubuntu/Desktop/panara/subject-113.csv","Jazzy James","3.1.3","3.2.3.wav","3.2.5.wav","3.1.5.wav","0","0","1","0","NA","590","14274","590","NA","1365606","1","2","1024","2","48000","-16","experiment","3.2.3.wav","3.1.5.wav","3.2.5.wav","113","odd","2002685","2005221","2004721","2003950","1945266","NA","2001685","2005995","541","NA","NA","2001682","2006586","1693099","2001682","1366150","NA","2001685","543","New experiment","NA","0","0","0","yes","1024"
"undefined","undefined","undefined","undefined","black","no","legacy","0","uniform","undefined","undefined","undefined","109","109","219","109","109","NA","109","109","0","0","0","109","109","0","109","0","NA","109","0","Thu 25 Jul 2019 01:01:23 PM PDT","500","1000","The main experiment item","yes","NA","ABX_v3.osexp","/home/ubuntu/Desktop/panara","no","no","mono","no","18","no","white","no","yes","768","55","53","/home/ubuntu/Desktop/panara/subject-113.csv","Jazzy James","3.1.3","4.1.3.wav","3.1.3.wav","3.1.5.wav","0","1","1","1","NA","2257","14274","2257","NA","1365606","1","2","1024","2","48000","-16","experiment","4.1.3.wav","3.1.5.wav","3.1.3.wav","113","odd","2007758","2010266","2009766","2008997","1945266","NA","2006758","2011047","541","NA","NA","2006755","2013304","1693099","2006755","1366150","NA","2006758","543","New experiment","NA","0","0","0","yes","1024"
"undefined","undefined","undefined","undefined","black","no","legacy","0","uniform","undefined","undefined","undefined","110","110","221","110","110","NA","110","110","0","0","0","110","110","0","110","0","NA","110","0","Thu 25 Jul 2019 01:01:23 PM PDT","500","1000","The main experiment item","yes","NA","ABX_v3.osexp","/home/ubuntu/Desktop/panara","no","no","mono","no","18","no","white","no","yes","768","56","53","/home/ubuntu/Desktop/panara/subject-113.csv","Jazzy James","3.1.3","4.2.2.wav","4.2.4.wav","3.2.4.wav","0","1","1","1","NA","943","14274","943","NA","1365606","1","2","1024","2","48000","-16","experiment","4.2.2.wav","3.2.4.wav","4.2.4.wav","113","odd","2014508","2016967","2016467","2015739","1945266","NA","2013508","2017745","541","NA","NA","2013506","2018689","1693099","2013506","1366150","NA","2013508","543","New experiment","NA","0","0","0","yes","1024"
"undefined","undefined","undefined","undefined","black","no","legacy","0","uniform","undefined","undefined","undefined","111","111","223","111","111","NA","111","111","0","0","0","111","111","0","111","0","NA","111","0","Thu 25 Jul 2019 01:01:23 PM PDT","500","1000","The main experiment item","yes","NA","ABX_v3.osexp","/home/ubuntu/Desktop/panara","no","no","mono","no","18","no","white","no","yes","768","57","53","/home/ubuntu/Desktop/panara/subject-113.csv","Jazzy James","3.1.3","3.1.2.wav","3.1.4.wav","4.1.4.wav","0","1","1","1","NA","571","14274","571","NA","1365606","1","2","1024","2","48000","-16","experiment","3.1.2.wav","4.1.4.wav","3.1.4.wav","113","odd","2019865","2022410","2021910","2021142","1945266","NA","2018865","2023165","541","NA","NA","2018863","2023737","1693099","2018862","1366150","NA","2018865","543","New experiment","NA","0","0","0","yes","1024"
"undefined","undefined","undefined","undefined","black","no","legacy","0","uniform","undefined","undefined","undefined","112","112","225","112","112","NA","112","112","0","0","0","112","112","0","112","0","NA","112","0","Thu 25 Jul 2019 01:01:23 PM PDT","500","1000","The main experiment item","yes","NA","ABX_v3.osexp","/home/ubuntu/Desktop/panara","no","no","mono","no","18","no","white","no","yes","768","58","53","/home/ubuntu/Desktop/panara/subject-113.csv","Jazzy James","3.1.3","4.1.3.wav","4.2.3.wav","4.2.5.wav","0","1","1","1","NA","1384","14274","1384","NA","1365606","1","2","1024","2","48000","-16","experiment","4.1.3.wav","4.2.5.wav","4.2.3.wav","113","odd","2024903","2027390","2026890","2026127","1945266","NA","2023903","2028136","541","NA","NA","2023901","2029520","1693099","2023901","1366150","NA","2023903","543","New experiment","NA","0","0","0","yes","1024"
