acc,accuracy,average_response_time,avg_rt,background,bidi,canvas_backend,compensation,coordinates,correct,correct_display_selecting,correct_welcome,count_A,count_B,count_ISI,count_X,count_break,count_determine_break,count_display_listening,count_display_selecting,count_experiment,count_finished,count_getting_started,count_new_inline_script,count_new_logger,count_new_loop,count_new_sequence,count_plain_block,count_setup_breaks,count_wait_nextitem,count_welcome,datetime,delay_ISI,delay_wait_nextitem,description,disable_garbage_collection,empty_column,experiment_file,experiment_path,flip_order,font_bold,font_family,font_italic,font_size,font_underline,foreground,form_clicks,fullscreen,height,live_row,live_row_plain_block,logfile,opensesame_codename,opensesame_version,play1,play2,play3,repeat_cycle,response,response_break,response_display_selecting,response_finished,response_time,response_time_break,response_time_display_selecting,response_time_finished,response_time_welcome,response_welcome,round_decimals,sound_buf_size,sound_channels,sound_freq,sound_sample_size,start,stimA,stimB,stimX,subject_nr,subject_parity,time_A,time_B,time_ISI,time_X,time_break,time_determine_break,time_display_listening,time_display_selecting,time_experiment,time_finished,time_getting_started,time_new_inline_script,time_new_logger,time_new_loop,time_new_sequence,time_plain_block,time_setup_breaks,time_wait_nextitem,time_welcome,title,to_break,total_correct,total_response_time,total_responses,uniform_coordinates,width
undefined,undefined,undefined,undefined,black,no,legacy,0,uniform,undefined,undefined,undefined,0,0,1,0,0,NA,0,0,0,0,0,0,0,0,0,0,NA,0,0,Fri 14 Jun 2019 11:51:46 AM PDT,500,1000,The main experiment item,yes,NA,ABX_v3.osexp,/home/ubuntu/Desktop/panara,yes,no,mono,no,18,no,white,no,yes,768,0,0,/home/ubuntu/Desktop/panara/subject-106.csv,Jazzy James,3.1.3,3.1.3.wav,3.1.3.wav,3.1.1.wav,0,1,NA,1,NA,3156,NA,3156,NA,4552761,i,2,1024,2,48000,-16,experiment,3.1.1.wav,3.1.3.wav,3.1.3.wav,106,even,4554943,4557427,4556927,4556181,NA,NA,4553942,4558179,1060,NA,NA,4553940,4561335,NA,4553940,4553825,NA,4553943,1063,New experiment,NA,0,0,0,yes,1024
undefined,undefined,undefined,undefined,black,no,legacy,0,uniform,undefined,undefined,undefined,1,1,3,1,1,NA,1,1,0,0,0,1,1,0,1,0,NA,1,0,Fri 14 Jun 2019 11:51:46 AM PDT,500,1000,The main experiment item,yes,NA,ABX_v3.osexp,/home/ubuntu/Desktop/panara,yes,no,mono,no,18,no,white,no,yes,768,1,1,/home/ubuntu/Desktop/panara/subject-106.csv,Jazzy James,3.1.3,2.2.3.wav,2.2.3.wav,2.2.1.wav,0,1,NA,1,NA,771,NA,771,NA,4552761,i,2,1024,2,48000,-16,experiment,2.2.1.wav,2.2.3.wav,2.2.3.wav,106,even,4562650,4565128,4564628,4563911,NA,NA,4561650,4565867,1060,NA,NA,4561647,4566639,NA,4561647,4553825,NA,4561650,1063,New experiment,NA,0,0,0,yes,1024
undefined,undefined,undefined,undefined,black,no,legacy,0,uniform,undefined,undefined,undefined,2,2,5,2,2,NA,2,2,0,0,0,2,2,0,2,0,NA,2,0,Fri 14 Jun 2019 11:51:46 AM PDT,500,1000,The main experiment item,yes,NA,ABX_v3.osexp,/home/ubuntu/Desktop/panara,yes,no,mono,no,18,no,white,no,yes,768,2,2,/home/ubuntu/Desktop/panara/subject-106.csv,Jazzy James,3.1.3,4.2.3.wav,4.2.1.wav,4.2.1.wav,0,1,NA,3,NA,821,NA,821,NA,4552761,i,2,1024,2,48000,-16,experiment,4.2.1.wav,4.2.3.wav,4.2.1.wav,106,even,4567834,4570317,4569817,4569094,NA,NA,4566834,4571034,1060,NA,NA,4566832,4571855,NA,4566832,4553825,NA,4566834,1063,New experiment,NA,0,0,0,yes,1024
undefined,undefined,undefined,undefined,black,no,legacy,0,uniform,undefined,undefined,undefined,3,3,7,3,3,NA,3,3,0,0,0,3,3,0,3,0,NA,3,0,Fri 14 Jun 2019 11:51:46 AM PDT,500,1000,The main experiment item,yes,NA,ABX_v3.osexp,/home/ubuntu/Desktop/panara,no,no,mono,no,18,no,white,no,yes,768,3,3,/home/ubuntu/Desktop/panara/subject-106.csv,Jazzy James,3.1.3,4.1.3.wav,4.1.3.wav,4.1.5.wav,0,1,NA,1,NA,2751,NA,2751,NA,4552761,i,2,1024,2,48000,-16,experiment,4.1.3.wav,4.1.5.wav,4.1.3.wav,106,even,4573064,4575516,4575016,4574300,NA,NA,4572063,4576240,1060,NA,NA,4572060,4578991,NA,4572060,4553825,NA,4572064,1063,New experiment,NA,0,0,0,yes,1024
undefined,undefined,undefined,undefined,black,no,legacy,0,uniform,undefined,undefined,undefined,4,4,9,4,4,NA,4,4,0,0,0,4,4,0,4,0,NA,4,0,Fri 14 Jun 2019 11:51:46 AM PDT,500,1000,The main experiment item,yes,NA,ABX_v3.osexp,/home/ubuntu/Desktop/panara,yes,no,mono,no,18,no,white,no,yes,768,4,4,/home/ubuntu/Desktop/panara/subject-106.csv,Jazzy James,3.1.3,3.1.5.wav,3.1.3.wav,3.1.3.wav,0,0,NA,0,NA,2216,NA,2216,NA,4552761,i,2,1024,2,48000,-16,experiment,3.1.3.wav,3.1.5.wav,3.1.3.wav,106,even,4580145,4582674,4582174,4581432,NA,NA,4579144,4583429,1060,NA,NA,4579141,4585646,NA,4579141,4553825,NA,4579145,1063,New experiment,NA,0,0,0,yes,1024
undefined,undefined,undefined,undefined,black,no,legacy,0,uniform,undefined,undefined,undefined,5,5,11,5,5,NA,5,5,0,0,0,5,5,0,5,0,NA,5,0,Fri 14 Jun 2019 11:51:46 AM PDT,500,1000,The main experiment item,yes,NA,ABX_v3.osexp,/home/ubuntu/Desktop/panara,no,no,mono,no,18,no,white,no,yes,768,5,5,/home/ubuntu/Desktop/panara/subject-106.csv,Jazzy James,3.1.3,5.2.3.wav,5.2.5.wav,5.2.5.wav,0,1,NA,1,NA,2295,NA,2295,NA,4552761,i,2,1024,2,48000,-16,experiment,5.2.3.wav,5.2.5.wav,5.2.5.wav,106,even,4586804,4589259,4588759,4588037,NA,NA,4585804,4590014,1060,NA,NA,4585802,4592309,NA,4585802,4553825,NA,4585804,1063,New experiment,NA,0,0,0,yes,1024
undefined,undefined,undefined,undefined,black,no,legacy,0,uniform,undefined,undefined,undefined,6,6,13,6,6,NA,6,6,0,0,0,6,6,0,6,0,NA,6,0,Fri 14 Jun 2019 11:51:46 AM PDT,500,1000,The main experiment item,yes,NA,ABX_v3.osexp,/home/ubuntu/Desktop/panara,yes,no,mono,no,18,no,white,no,yes,768,6,6,/home/ubuntu/Desktop/panara/subject-106.csv,Jazzy James,3.1.3,2.2.3.wav,2.2.1.wav,2.2.1.wav,0,0,NA,0,NA,886,NA,886,NA,4552761,i,2,1024,2,48000,-16,experiment,2.2.1.wav,2.2.3.wav,2.2.1.wav,106,even,4593459,4595931,4595431,4594678,NA,NA,4592459,4596654,1060,NA,NA,4592456,4597541,NA,4592456,4553825,NA,4592459,1063,New experiment,NA,0,0,0,yes,1024
undefined,undefined,undefined,undefined,black,no,legacy,0,uniform,undefined,undefined,undefined,7,7,15,7,7,NA,7,7,0,0,0,7,7,0,7,0,NA,7,0,Fri 14 Jun 2019 11:51:46 AM PDT,500,1000,The main experiment item,yes,NA,ABX_v3.osexp,/home/ubuntu/Desktop/panara,yes,no,mono,no,18,no,white,no,yes,768,7,7,/home/ubuntu/Desktop/panara/subject-106.csv,Jazzy James,3.1.3,4.2.4.wav,4.2.2.wav,4.2.2.wav,0,0,NA,0,NA,540,NA,540,NA,4552761,i,2,1024,2,48000,-16,experiment,4.2.2.wav,4.2.4.wav,4.2.2.wav,106,even,4598725,4601177,4600677,4599946,NA,NA,4597725,4601896,1060,NA,NA,4597722,4602436,NA,4597722,4553825,NA,4597725,1063,New experiment,NA,0,0,0,yes,1024
undefined,undefined,undefined,undefined,black,no,legacy,0,uniform,undefined,undefined,undefined,8,8,17,8,8,NA,8,8,0,0,0,8,8,0,8,0,NA,8,0,Fri 14 Jun 2019 11:51:46 AM PDT,500,1000,The main experiment item,yes,NA,ABX_v3.osexp,/home/ubuntu/Desktop/panara,yes,no,mono,no,18,no,white,no,yes,768,8,8,/home/ubuntu/Desktop/panara/subject-106.csv,Jazzy James,3.1.3,4.2.5.wav,4.2.3.wav,4.2.3.wav,0,0,NA,0,NA,624,NA,624,NA,4552761,i,2,1024,2,48000,-16,experiment,4.2.3.wav,4.2.5.wav,4.2.3.wav,106,even,4603625,4606154,4605654,4604890,NA,NA,4602625,4606916,1060,NA,NA,4602623,4607540,NA,4602623,4553825,NA,4602625,1063,New experiment,NA,0,0,0,yes,1024
undefined,undefined,undefined,undefined,black,no,legacy,0,uniform,undefined,undefined,undefined,9,9,19,9,9,NA,9,9,0,0,0,9,9,0,9,0,NA,9,0,Fri 14 Jun 2019 11:51:46 AM PDT,500,1000,The main experiment item,yes,NA,ABX_v3.osexp,/home/ubuntu/Desktop/panara,no,no,mono,no,18,no,white,no,yes,768,9,9,/home/ubuntu/Desktop/panara/subject-106.csv,Jazzy James,3.1.3,1.1.3.wav,1.1.5.wav,1.1.5.wav,0,0,NA,0,NA,480,NA,480,NA,4552761,i,2,1024,2,48000,-16,experiment,1.1.3.wav,1.1.5.wav,1.1.5.wav,106,even,4608737,4611317,4610817,4610043,NA,NA,4607737,4612099,1060,NA,NA,4607734,4612580,NA,4607734,4553825,NA,4607737,1063,New experiment,NA,0,0,0,yes,1024
undefined,undefined,undefined,undefined,black,no,legacy,0,uniform,undefined,undefined,undefined,10,10,21,10,10,NA,10,10,0,0,0,10,10,0,10,0,NA,10,0,Fri 14 Jun 2019 11:51:46 AM PDT,500,1000,The main experiment item,yes,NA,ABX_v3.osexp,/home/ubuntu/Desktop/panara,no,no,mono,no,18,no,white,no,yes,768,10,10,/home/ubuntu/Desktop/panara/subject-106.csv,Jazzy James,3.1.3,5.2.2.wav,5.2.4.wav,5.2.4.wav,0,1,NA,1,NA,2288,NA,2288,NA,4552761,i,2,1024,2,48000,-16,experiment,5.2.2.wav,5.2.4.wav,5.2.4.wav,106,even,4613738,4616194,4615694,4614943,NA,NA,4612737,4616963,1060,NA,NA,4612734,4619251,NA,4612734,4553825,NA,4612737,1063,New experiment,NA,0,0,0,yes,1024
undefined,undefined,undefined,undefined,black,no,legacy,0,uniform,undefined,undefined,undefined,11,11,23,11,11,NA,11,11,0,0,0,11,11,0,11,0,NA,11,0,Fri 14 Jun 2019 11:51:46 AM PDT,500,1000,The main experiment item,yes,NA,ABX_v3.osexp,/home/ubuntu/Desktop/panara,yes,no,mono,no,18,no,white,no,yes,768,11,11,/home/ubuntu/Desktop/panara/subject-106.csv,Jazzy James,3.1.3,1.1.3.wav,1.1.1.wav,1.1.1.wav,0,0,NA,0,NA,571,NA,571,NA,4552761,i,2,1024,2,48000,-16,experiment,1.1.1.wav,1.1.3.wav,1.1.1.wav,106,even,4620456,4623064,4622564,4621756,NA,NA,4619455,4623848,1060,NA,NA,4619453,4624419,NA,4619453,4553825,NA,4619456,1063,New experiment,NA,0,0,0,yes,1024
undefined,undefined,undefined,undefined,black,no,legacy,0,uniform,undefined,undefined,undefined,12,12,25,12,12,NA,12,12,0,0,0,12,12,0,12,0,NA,12,0,Fri 14 Jun 2019 11:51:46 AM PDT,500,1000,The main experiment item,yes,NA,ABX_v3.osexp,/home/ubuntu/Desktop/panara,yes,no,mono,no,18,no,white,no,yes,768,12,12,/home/ubuntu/Desktop/panara/subject-106.csv,Jazzy James,3.1.3,1.2.3.wav,1.2.3.wav,1.2.1.wav,0,1,NA,1,NA,866,NA,866,NA,4552761,i,2,1024,2,48000,-16,experiment,1.2.1.wav,1.2.3.wav,1.2.3.wav,106,even,4625560,4628112,4627612,4626832,NA,NA,4624560,4628896,1060,NA,NA,4624558,4629763,NA,4624558,4553825,NA,4624560,1063,New experiment,NA,0,0,0,yes,1024
undefined,undefined,undefined,undefined,black,no,legacy,0,uniform,undefined,undefined,undefined,13,13,27,13,13,NA,13,13,0,0,0,13,13,0,13,0,NA,13,0,Fri 14 Jun 2019 11:51:46 AM PDT,500,1000,The main experiment item,yes,NA,ABX_v3.osexp,/home/ubuntu/Desktop/panara,no,no,mono,no,18,no,white,no,yes,768,13,13,/home/ubuntu/Desktop/panara/subject-106.csv,Jazzy James,3.1.3,2.1.1.wav,2.1.3.wav,2.1.3.wav,0,0,NA,0,NA,682,NA,682,NA,4552761,i,2,1024,2,48000,-16,experiment,2.1.1.wav,2.1.3.wav,2.1.3.wav,106,even,4630977,4633489,4632989,4632237,NA,NA,4629977,4634241,1060,NA,NA,4629974,4634923,NA,4629974,4553825,NA,4629977,1063,New experiment,NA,0,0,0,yes,1024
undefined,undefined,undefined,undefined,black,no,legacy,0,uniform,undefined,undefined,undefined,14,14,29,14,14,NA,14,14,0,0,0,14,14,0,14,0,NA,14,0,Fri 14 Jun 2019 11:51:46 AM PDT,500,1000,The main experiment item,yes,NA,ABX_v3.osexp,/home/ubuntu/Desktop/panara,yes,no,mono,no,18,no,white,no,yes,768,14,14,/home/ubuntu/Desktop/panara/subject-106.csv,Jazzy James,3.1.3,2.1.4.wav,2.1.2.wav,2.1.2.wav,0,0,NA,0,NA,605,NA,605,NA,4552761,i,2,1024,2,48000,-16,experiment,2.1.2.wav,2.1.4.wav,2.1.2.wav,106,even,4636123,4638637,4638137,4637385,NA,NA,4635122,4639390,1060,NA,NA,4635119,4639995,NA,4635119,4553825,NA,4635122,1063,New experiment,NA,0,0,0,yes,1024
undefined,undefined,undefined,undefined,black,no,legacy,0,uniform,undefined,undefined,undefined,15,15,31,15,15,NA,15,15,0,0,0,15,15,0,15,0,NA,15,0,Fri 14 Jun 2019 11:51:46 AM PDT,500,1000,The main experiment item,yes,NA,ABX_v3.osexp,/home/ubuntu/Desktop/panara,no,no,mono,no,18,no,white,no,yes,768,15,15,/home/ubuntu/Desktop/panara/subject-106.csv,Jazzy James,3.1.3,2.2.2.wav,2.2.4.wav,2.2.4.wav,0,0,NA,0,NA,857,NA,857,NA,4552761,i,2,1024,2,48000,-16,experiment,2.2.2.wav,2.2.4.wav,2.2.4.wav,106,even,4641171,4643629,4643129,4642377,NA,NA,4640171,4644352,1060,NA,NA,4640169,4645210,NA,4640168,4553825,NA,4640171,1063,New experiment,NA,0,0,0,yes,1024
undefined,undefined,undefined,undefined,black,no,legacy,0,uniform,undefined,undefined,undefined,16,16,33,16,16,NA,16,16,0,0,0,16,16,0,16,0,NA,16,0,Fri 14 Jun 2019 11:51:46 AM PDT,500,1000,The main experiment item,yes,NA,ABX_v3.osexp,/home/ubuntu/Desktop/panara,yes,no,mono,no,18,no,white,no,yes,768,16,16,/home/ubuntu/Desktop/panara/subject-106.csv,Jazzy James,3.1.3,3.1.5.wav,3.1.5.wav,3.1.3.wav,0,0,NA,0,NA,2491,NA,2491,NA,4552761,i,2,1024,2,48000,-16,experiment,3.1.3.wav,3.1.5.wav,3.1.5.wav,106,even,4646392,4648946,4648446,4647666,NA,NA,4645392,4649686,1060,NA,NA,4645390,4652177,NA,4645390,4553825,NA,4645392,1063,New experiment,NA,0,0,0,yes,1024
undefined,undefined,undefined,undefined,black,no,legacy,0,uniform,undefined,undefined,undefined,17,17,35,17,17,NA,17,17,0,0,0,17,17,0,17,0,NA,17,0,Fri 14 Jun 2019 11:51:46 AM PDT,500,1000,The main experiment item,yes,NA,ABX_v3.osexp,/home/ubuntu/Desktop/panara,no,no,mono,no,18,no,white,no,yes,768,17,17,/home/ubuntu/Desktop/panara/subject-106.csv,Jazzy James,3.1.3,1.1.2.wav,1.1.4.wav,1.1.4.wav,0,1,NA,1,NA,1047,NA,1047,NA,4552761,i,2,1024,2,48000,-16,experiment,1.1.2.wav,1.1.4.wav,1.1.4.wav,106,even,4653389,4655971,4655471,4654699,NA,NA,4652389,4656754,1060,NA,NA,4652387,4657802,NA,4652387,4553825,NA,4652389,1063,New experiment,NA,0,0,0,yes,1024
undefined,undefined,undefined,undefined,black,no,legacy,0,uniform,undefined,undefined,undefined,18,18,37,18,18,NA,18,18,0,0,0,18,18,0,18,0,NA,18,0,Fri 14 Jun 2019 11:51:46 AM PDT,500,1000,The main experiment item,yes,NA,ABX_v3.osexp,/home/ubuntu/Desktop/panara,yes,no,mono,no,18,no,white,no,yes,768,18,18,/home/ubuntu/Desktop/panara/subject-106.csv,Jazzy James,3.1.3,4.1.3.wav,4.1.3.wav,4.1.1.wav,0,0,NA,0,NA,1315,NA,1315,NA,4552761,i,2,1024,2,48000,-16,experiment,4.1.1.wav,4.1.3.wav,4.1.3.wav,106,even,4659059,4661525,4661025,4660273,NA,NA,4658059,4662243,1060,NA,NA,4658056,4663559,NA,4658055,4553825,NA,4658059,1063,New experiment,NA,0,0,0,yes,1024
undefined,undefined,undefined,undefined,black,no,legacy,0,uniform,undefined,undefined,undefined,19,19,39,19,19,NA,19,19,0,0,0,19,19,0,19,0,NA,19,0,Fri 14 Jun 2019 11:51:46 AM PDT,500,1000,The main experiment item,yes,NA,ABX_v3.osexp,/home/ubuntu/Desktop/panara,yes,no,mono,no,18,no,white,no,yes,768,19,19,/home/ubuntu/Desktop/panara/subject-106.csv,Jazzy James,3.1.3,3.2.4.wav,3.2.4.wav,3.2.2.wav,0,0,NA,0,NA,979,NA,979,NA,4552761,i,2,1024,2,48000,-16,experiment,3.2.2.wav,3.2.4.wav,3.2.4.wav,106,even,4664718,4667221,4666721,4665969,NA,NA,4663718,4668004,1060,NA,NA,4663716,4668983,NA,4663716,4553825,NA,4663718,1063,New experiment,NA,0,0,0,yes,1024
undefined,undefined,undefined,undefined,black,no,legacy,0,uniform,undefined,undefined,undefined,20,20,41,20,20,NA,20,20,0,0,0,20,20,0,20,0,NA,20,0,Fri 14 Jun 2019 11:51:46 AM PDT,500,1000,The main experiment item,yes,NA,ABX_v3.osexp,/home/ubuntu/Desktop/panara,no,no,mono,no,18,no,white,no,yes,768,20,20,/home/ubuntu/Desktop/panara/subject-106.csv,Jazzy James,3.1.3,2.1.3.wav,2.1.5.wav,2.1.5.wav,0,0,NA,0,NA,631,NA,631,NA,4552761,i,2,1024,2,48000,-16,experiment,2.1.3.wav,2.1.5.wav,2.1.5.wav,106,even,4670171,4672675,4672175,4671426,NA,NA,4669171,4673422,1060,NA,NA,4669169,4674054,NA,4669168,4553825,NA,4669171,1063,New experiment,NA,0,0,0,yes,1024
undefined,undefined,undefined,undefined,black,no,legacy,0,uniform,undefined,undefined,undefined,21,21,43,21,21,NA,21,21,0,0,0,21,21,0,21,0,NA,21,0,Fri 14 Jun 2019 11:51:46 AM PDT,500,1000,The main experiment item,yes,NA,ABX_v3.osexp,/home/ubuntu/Desktop/panara,no,no,mono,no,18,no,white,no,yes,768,21,21,/home/ubuntu/Desktop/panara/subject-106.csv,Jazzy James,3.1.3,3.2.3.wav,3.2.5.wav,3.2.5.wav,0,0,NA,0,NA,1591,NA,1591,NA,4552761,i,2,1024,2,48000,-16,experiment,3.2.3.wav,3.2.5.wav,3.2.5.wav,106,even,4675219,4677744,4677244,4676465,NA,NA,4674218,4678526,1060,NA,NA,4674215,4680117,NA,4674215,4553825,NA,4674219,1063,New experiment,NA,0,0,0,yes,1024
undefined,undefined,undefined,undefined,black,no,legacy,0,uniform,undefined,undefined,undefined,22,22,45,22,22,NA,22,22,0,0,0,22,22,0,22,0,NA,22,0,Fri 14 Jun 2019 11:51:46 AM PDT,500,1000,The main experiment item,yes,NA,ABX_v3.osexp,/home/ubuntu/Desktop/panara,no,no,mono,no,18,no,white,no,yes,768,22,22,/home/ubuntu/Desktop/panara/subject-106.csv,Jazzy James,3.1.3,3.2.2.wav,3.2.2.wav,3.2.4.wav,0,1,NA,1,NA,761,NA,761,NA,4552761,i,2,1024,2,48000,-16,experiment,3.2.2.wav,3.2.4.wav,3.2.2.wav,106,even,4681250,4683824,4683324,4682544,NA,NA,4680250,4684572,1060,NA,NA,4680248,4685333,NA,4680247,4553825,NA,4680250,1063,New experiment,NA,0,0,0,yes,1024
undefined,undefined,undefined,undefined,black,no,legacy,0,uniform,undefined,undefined,undefined,23,23,47,23,23,NA,23,23,0,0,0,23,23,0,23,0,NA,23,0,Fri 14 Jun 2019 11:51:46 AM PDT,500,1000,The main experiment item,yes,NA,ABX_v3.osexp,/home/ubuntu/Desktop/panara,no,no,mono,no,18,no,white,no,yes,768,23,23,/home/ubuntu/Desktop/panara/subject-106.csv,Jazzy James,3.1.3,5.2.2.wav,5.2.2.wav,5.2.4.wav,0,1,NA,1,NA,1175,NA,1175,NA,4552761,i,2,1024,2,48000,-16,experiment,5.2.2.wav,5.2.4.wav,5.2.2.wav,106,even,4686509,4688917,4688416,4687723,NA,NA,4685509,4689654,1060,NA,NA,4685507,4690830,NA,4685507,4553825,NA,4685509,1063,New experiment,NA,0,0,0,yes,1024
undefined,undefined,undefined,undefined,black,no,legacy,0,uniform,undefined,undefined,undefined,24,24,49,24,24,NA,24,24,0,0,0,24,24,0,24,0,NA,24,0,Fri 14 Jun 2019 11:51:46 AM PDT,500,1000,The main experiment item,yes,NA,ABX_v3.osexp,/home/ubuntu/Desktop/panara,yes,no,mono,no,18,no,white,no,yes,768,24,24,/home/ubuntu/Desktop/panara/subject-106.csv,Jazzy James,3.1.3,2.1.4.wav,2.1.4.wav,2.1.2.wav,0,1,NA,1,NA,1031,NA,1031,NA,4552761,i,2,1024,2,48000,-16,experiment,2.1.2.wav,2.1.4.wav,2.1.4.wav,106,even,4691998,4694490,4693990,4693238,NA,NA,4690998,4695245,1060,NA,NA,4690996,4696276,NA,4690996,4553825,NA,4690998,1063,New experiment,NA,0,0,0,yes,1024
undefined,undefined,undefined,undefined,black,no,legacy,0,uniform,undefined,undefined,undefined,25,25,51,25,25,NA,25,25,0,0,0,25,25,0,25,0,NA,25,0,Fri 14 Jun 2019 11:51:46 AM PDT,500,1000,The main experiment item,yes,NA,ABX_v3.osexp,/home/ubuntu/Desktop/panara,no,no,mono,no,18,no,white,no,yes,768,25,25,/home/ubuntu/Desktop/panara/subject-106.csv,Jazzy James,3.1.3,3.1.2.wav,3.1.4.wav,3.1.4.wav,0,0,NA,0,NA,2282,NA,2282,NA,4552761,i,2,1024,2,48000,-16,experiment,3.1.2.wav,3.1.4.wav,3.1.4.wav,106,even,4697499,4700065,4699565,4698785,NA,NA,4696499,4700841,1060,NA,NA,4696496,4703124,NA,4696496,4553825,NA,4696499,1063,New experiment,NA,0,0,0,yes,1024
undefined,undefined,undefined,undefined,black,no,legacy,0,uniform,undefined,undefined,undefined,26,26,53,26,26,NA,26,26,0,0,0,26,26,0,26,0,NA,26,0,Fri 14 Jun 2019 11:51:46 AM PDT,500,1000,The main experiment item,yes,NA,ABX_v3.osexp,/home/ubuntu/Desktop/panara,yes,no,mono,no,18,no,white,no,yes,768,26,26,/home/ubuntu/Desktop/panara/subject-106.csv,Jazzy James,3.1.3,4.1.4.wav,4.1.2.wav,4.1.2.wav,0,0,NA,0,NA,1289,NA,1289,NA,4552761,i,2,1024,2,48000,-16,experiment,4.1.2.wav,4.1.4.wav,4.1.2.wav,106,even,4704314,4706777,4706277,4705555,NA,NA,4703314,4707531,1060,NA,NA,4703311,4708820,NA,4703311,4553825,NA,4703314,1063,New experiment,NA,0,0,0,yes,1024
undefined,undefined,undefined,undefined,black,no,legacy,0,uniform,undefined,undefined,undefined,27,27,55,27,27,NA,27,27,0,0,0,27,27,0,27,0,NA,27,0,Fri 14 Jun 2019 11:51:46 AM PDT,500,1000,The main experiment item,yes,NA,ABX_v3.osexp,/home/ubuntu/Desktop/panara,yes,no,mono,no,18,no,white,no,yes,768,27,27,/home/ubuntu/Desktop/panara/subject-106.csv,Jazzy James,3.1.3,3.1.4.wav,3.1.2.wav,3.1.2.wav,0,0,NA,0,NA,728,NA,728,NA,4552761,i,2,1024,2,48000,-16,experiment,3.1.2.wav,3.1.4.wav,3.1.2.wav,106,even,4710025,4712574,4712073,4711294,NA,NA,4709024,4713355,1060,NA,NA,4709022,4714083,NA,4709022,4553825,NA,4709025,1063,New experiment,NA,0,0,0,yes,1024
undefined,undefined,undefined,undefined,black,no,legacy,0,uniform,undefined,undefined,undefined,28,28,57,28,28,NA,28,28,0,0,0,28,28,0,28,0,NA,28,0,Fri 14 Jun 2019 11:51:46 AM PDT,500,1000,The main experiment item,yes,NA,ABX_v3.osexp,/home/ubuntu/Desktop/panara,yes,no,mono,no,18,no,white,no,yes,768,28,28,/home/ubuntu/Desktop/panara/subject-106.csv,Jazzy James,3.1.3,1.2.5.wav,1.2.3.wav,1.2.3.wav,0,0,NA,0,NA,847,NA,847,NA,4552761,i,2,1024,2,48000,-16,experiment,1.2.3.wav,1.2.5.wav,1.2.3.wav,106,even,4715272,4717821,4717321,4716541,NA,NA,4714271,4718603,1060,NA,NA,4714269,4719451,NA,4714269,4553825,NA,4714272,1063,New experiment,NA,0,0,0,yes,1024
undefined,undefined,undefined,undefined,black,no,legacy,0,uniform,undefined,undefined,undefined,29,29,59,29,29,NA,29,29,0,0,0,29,29,0,29,0,NA,29,0,Fri 14 Jun 2019 11:51:46 AM PDT,500,1000,The main experiment item,yes,NA,ABX_v3.osexp,/home/ubuntu/Desktop/panara,no,no,mono,no,18,no,white,no,yes,768,29,29,/home/ubuntu/Desktop/panara/subject-106.csv,Jazzy James,3.1.3,2.2.2.wav,2.2.2.wav,2.2.4.wav,0,1,NA,1,NA,1995,NA,1995,NA,4552761,i,2,1024,2,48000,-16,experiment,2.2.2.wav,2.2.4.wav,2.2.2.wav,106,even,4720598,4723058,4722558,4721832,NA,NA,4719597,4723808,1060,NA,NA,4719595,4725803,NA,4719595,4553825,NA,4719598,1063,New experiment,NA,0,0,0,yes,1024
undefined,undefined,undefined,undefined,black,no,legacy,0,uniform,undefined,undefined,undefined,30,30,61,30,30,NA,30,30,0,0,0,30,30,0,30,0,NA,30,0,Fri 14 Jun 2019 11:51:46 AM PDT,500,1000,The main experiment item,yes,NA,ABX_v3.osexp,/home/ubuntu/Desktop/panara,no,no,mono,no,18,no,white,no,yes,768,30,30,/home/ubuntu/Desktop/panara/subject-106.csv,Jazzy James,3.1.3,3.2.1.wav,3.2.1.wav,3.2.3.wav,0,1,NA,1,NA,1294,NA,1294,NA,4552761,i,2,1024,2,48000,-16,experiment,3.2.1.wav,3.2.3.wav,3.2.1.wav,106,even,4726985,4729482,4728982,4728230,NA,NA,4725984,4730235,1060,NA,NA,4725981,4731530,NA,4725981,4553825,NA,4725985,1063,New experiment,NA,0,0,0,yes,1024
undefined,undefined,undefined,undefined,black,no,legacy,0,uniform,undefined,undefined,undefined,31,31,63,31,31,NA,31,31,0,0,0,31,31,0,31,0,NA,31,0,Fri 14 Jun 2019 11:51:46 AM PDT,500,1000,The main experiment item,yes,NA,ABX_v3.osexp,/home/ubuntu/Desktop/panara,no,no,mono,no,18,no,white,no,yes,768,31,31,/home/ubuntu/Desktop/panara/subject-106.csv,Jazzy James,3.1.3,5.2.1.wav,5.2.1.wav,5.2.3.wav,0,0,NA,0,NA,1763,NA,1763,NA,4552761,i,2,1024,2,48000,-16,experiment,5.2.1.wav,5.2.3.wav,5.2.1.wav,106,even,4732738,4735184,4734684,4733961,NA,NA,4731738,4735910,1060,NA,NA,4731736,4737674,NA,4731735,4553825,NA,4731738,1063,New experiment,NA,0,0,0,yes,1024
undefined,undefined,undefined,undefined,black,no,legacy,0,uniform,undefined,undefined,undefined,32,32,65,32,32,NA,32,32,0,0,0,32,32,0,32,0,NA,32,0,Fri 14 Jun 2019 11:51:46 AM PDT,500,1000,The main experiment item,yes,NA,ABX_v3.osexp,/home/ubuntu/Desktop/panara,no,no,mono,no,18,no,white,no,yes,768,32,32,/home/ubuntu/Desktop/panara/subject-106.csv,Jazzy James,3.1.3,4.1.2.wav,4.1.4.wav,4.1.4.wav,0,0,NA,0,NA,1417,NA,1417,NA,4552761,i,2,1024,2,48000,-16,experiment,4.1.2.wav,4.1.4.wav,4.1.4.wav,106,even,4738828,4741315,4740815,4740091,NA,NA,4737827,4742032,1060,NA,NA,4737825,4743449,NA,4737825,4553825,NA,4737828,1063,New experiment,NA,0,0,0,yes,1024
undefined,undefined,undefined,undefined,black,no,legacy,0,uniform,undefined,undefined,undefined,33,33,67,33,33,NA,33,33,0,0,0,33,33,0,33,0,NA,33,0,Fri 14 Jun 2019 11:51:46 AM PDT,500,1000,The main experiment item,yes,NA,ABX_v3.osexp,/home/ubuntu/Desktop/panara,yes,no,mono,no,18,no,white,no,yes,768,33,33,/home/ubuntu/Desktop/panara/subject-106.csv,Jazzy James,3.1.3,1.2.4.wav,1.2.2.wav,1.2.2.wav,0,0,NA,0,NA,1338,NA,1338,NA,4552761,i,2,1024,2,48000,-16,experiment,1.2.2.wav,1.2.4.wav,1.2.2.wav,106,even,4744636,4747166,4746666,4745887,NA,NA,4743636,4747942,1060,NA,NA,4743634,4749281,NA,4743634,4553825,NA,4743636,1063,New experiment,NA,0,0,0,yes,1024
undefined,undefined,undefined,undefined,black,no,legacy,0,uniform,undefined,undefined,undefined,34,34,69,34,34,NA,34,34,0,0,0,34,34,0,34,0,NA,34,0,Fri 14 Jun 2019 11:51:46 AM PDT,500,1000,The main experiment item,yes,NA,ABX_v3.osexp,/home/ubuntu/Desktop/panara,yes,no,mono,no,18,no,white,no,yes,768,34,34,/home/ubuntu/Desktop/panara/subject-106.csv,Jazzy James,3.1.3,4.2.5.wav,4.2.5.wav,4.2.3.wav,0,1,NA,1,NA,924,NA,924,NA,4552761,i,2,1024,2,48000,-16,experiment,4.2.3.wav,4.2.5.wav,4.2.5.wav,106,even,4750427,4752891,4752391,4751653,NA,NA,4749427,4753644,1060,NA,NA,4749425,4754568,NA,4749425,4553825,NA,4749427,1063,New experiment,NA,0,0,0,yes,1024
undefined,undefined,undefined,undefined,black,no,legacy,0,uniform,undefined,undefined,undefined,35,35,71,35,35,NA,35,35,0,0,0,35,35,0,35,0,NA,35,0,Fri 14 Jun 2019 11:51:46 AM PDT,500,1000,The main experiment item,yes,NA,ABX_v3.osexp,/home/ubuntu/Desktop/panara,no,no,mono,no,18,no,white,no,yes,768,35,35,/home/ubuntu/Desktop/panara/subject-106.csv,Jazzy James,3.1.3,3.2.1.wav,3.2.3.wav,3.2.3.wav,0,0,NA,0,NA,1596,NA,1596,NA,4552761,i,2,1024,2,48000,-16,experiment,3.2.1.wav,3.2.3.wav,3.2.3.wav,106,even,4755751,4758251,4757751,4757008,NA,NA,4754750,4759004,1060,NA,NA,4754748,4760600,NA,4754748,4553825,NA,4754751,1063,New experiment,NA,0,0,0,yes,1024
undefined,undefined,undefined,undefined,black,no,legacy,0,uniform,undefined,undefined,undefined,36,36,73,36,36,NA,36,36,0,0,0,36,36,0,36,0,NA,36,0,Fri 14 Jun 2019 11:51:46 AM PDT,500,1000,The main experiment item,yes,NA,ABX_v3.osexp,/home/ubuntu/Desktop/panara,no,no,mono,no,18,no,white,no,yes,768,36,36,/home/ubuntu/Desktop/panara/subject-106.csv,Jazzy James,3.1.3,3.1.1.wav,3.1.1.wav,3.1.3.wav,0,1,NA,1,NA,941,NA,941,NA,4552761,i,2,1024,2,48000,-16,experiment,3.1.1.wav,3.1.3.wav,3.1.1.wav,106,even,4761763,4764282,4763782,4763023,NA,NA,4760763,4765035,1060,NA,NA,4760760,4765977,NA,4760760,4553825,NA,4760763,1063,New experiment,NA,0,0,0,yes,1024
undefined,undefined,undefined,undefined,black,no,legacy,0,uniform,undefined,undefined,undefined,37,37,75,37,37,NA,37,37,0,0,0,37,37,0,37,0,NA,37,0,Fri 14 Jun 2019 11:51:46 AM PDT,500,1000,The main experiment item,yes,NA,ABX_v3.osexp,/home/ubuntu/Desktop/panara,yes,no,mono,no,18,no,white,no,yes,768,37,37,/home/ubuntu/Desktop/panara/subject-106.csv,Jazzy James,3.1.3,4.1.3.wav,4.1.1.wav,4.1.1.wav,0,0,NA,0,NA,560,NA,560,NA,4552761,i,2,1024,2,48000,-16,experiment,4.1.1.wav,4.1.3.wav,4.1.1.wav,106,even,4767161,4769636,4769136,4768423,NA,NA,4766161,4770360,1060,NA,NA,4766159,4770920,NA,4766158,4553825,NA,4766161,1063,New experiment,NA,0,0,0,yes,1024
undefined,undefined,undefined,undefined,black,no,legacy,0,uniform,undefined,undefined,undefined,38,38,77,38,38,NA,38,38,0,0,0,38,38,0,38,0,NA,38,0,Fri 14 Jun 2019 11:51:46 AM PDT,500,1000,The main experiment item,yes,NA,ABX_v3.osexp,/home/ubuntu/Desktop/panara,yes,no,mono,no,18,no,white,no,yes,768,38,38,/home/ubuntu/Desktop/panara/subject-106.csv,Jazzy James,3.1.3,4.2.3.wav,4.2.3.wav,4.2.1.wav,0,1,NA,1,NA,704,NA,704,NA,4552761,i,2,1024,2,48000,-16,experiment,4.2.1.wav,4.2.3.wav,4.2.3.wav,106,even,4772097,4774612,4774112,4773355,NA,NA,4771096,4775367,1060,NA,NA,4771094,4776071,NA,4771094,4553825,NA,4771097,1063,New experiment,NA,0,0,0,yes,1024
undefined,undefined,undefined,undefined,black,no,legacy,0,uniform,undefined,undefined,undefined,39,39,79,39,39,NA,39,39,0,0,0,39,39,0,39,0,NA,39,0,Fri 14 Jun 2019 11:51:46 AM PDT,500,1000,The main experiment item,yes,NA,ABX_v3.osexp,/home/ubuntu/Desktop/panara,no,no,mono,no,18,no,white,no,yes,768,39,39,/home/ubuntu/Desktop/panara/subject-106.csv,Jazzy James,3.1.3,1.1.3.wav,1.1.3.wav,1.1.5.wav,0,1,NA,1,NA,884,NA,884,NA,4552761,i,2,1024,2,48000,-16,experiment,1.1.3.wav,1.1.5.wav,1.1.3.wav,106,even,4777235,4779811,4779311,4778531,NA,NA,4776235,4780594,1060,NA,NA,4776232,4781479,NA,4776232,4553825,NA,4776235,1063,New experiment,NA,0,0,0,yes,1024
undefined,undefined,undefined,undefined,black,no,legacy,0,uniform,undefined,undefined,undefined,40,40,81,40,40,NA,40,40,0,0,0,40,40,0,40,0,NA,40,0,Fri 14 Jun 2019 11:51:46 AM PDT,500,1000,The main experiment item,yes,NA,ABX_v3.osexp,/home/ubuntu/Desktop/panara,no,no,mono,no,18,no,white,no,yes,768,40,40,/home/ubuntu/Desktop/panara/subject-106.csv,Jazzy James,3.1.3,1.2.1.wav,1.2.1.wav,1.2.3.wav,0,0,NA,0,NA,646,NA,646,NA,4552761,i,2,1024,2,48000,-16,experiment,1.2.1.wav,1.2.3.wav,1.2.1.wav,106,even,4782641,4785201,4784701,4783920,NA,NA,4781640,4785984,1060,NA,NA,4781638,4786630,NA,4781637,4553825,NA,4781640,1063,New experiment,NA,0,0,0,yes,1024
undefined,undefined,undefined,undefined,black,no,legacy,0,uniform,undefined,undefined,undefined,41,41,83,41,41,NA,41,41,0,0,0,41,41,0,41,0,NA,41,0,Fri 14 Jun 2019 11:51:46 AM PDT,500,1000,The main experiment item,yes,NA,ABX_v3.osexp,/home/ubuntu/Desktop/panara,no,no,mono,no,18,no,white,no,yes,768,41,41,/home/ubuntu/Desktop/panara/subject-106.csv,Jazzy James,3.1.3,1.2.2.wav,1.2.4.wav,1.2.4.wav,0,0,NA,0,NA,512,NA,512,NA,4552761,i,2,1024,2,48000,-16,experiment,1.2.2.wav,1.2.4.wav,1.2.4.wav,106,even,4787805,4790350,4789850,4789097,NA,NA,4786805,4791102,1060,NA,NA,4786802,4791614,NA,4786802,4553825,NA,4786805,1063,New experiment,NA,0,0,0,yes,1024
undefined,undefined,undefined,undefined,black,no,legacy,0,uniform,undefined,undefined,undefined,42,42,85,42,42,NA,42,42,0,0,0,42,42,0,42,0,NA,42,0,Fri 14 Jun 2019 11:51:46 AM PDT,500,1000,The main experiment item,yes,NA,ABX_v3.osexp,/home/ubuntu/Desktop/panara,yes,no,mono,no,18,no,white,no,yes,768,42,42,/home/ubuntu/Desktop/panara/subject-106.csv,Jazzy James,3.1.3,2.1.5.wav,2.1.3.wav,2.1.3.wav,0,0,NA,0,NA,642,NA,642,NA,4552761,i,2,1024,2,48000,-16,experiment,2.1.3.wav,2.1.5.wav,2.1.3.wav,106,even,4792789,4795320,4794820,4794062,NA,NA,4791789,4796059,1060,NA,NA,4791786,4796702,NA,4791786,4553825,NA,4791789,1063,New experiment,NA,0,0,0,yes,1024
undefined,undefined,undefined,undefined,black,no,legacy,0,uniform,undefined,undefined,undefined,43,43,87,43,43,NA,43,43,0,0,0,43,43,0,43,0,NA,43,0,Fri 14 Jun 2019 11:51:46 AM PDT,500,1000,The main experiment item,yes,NA,ABX_v3.osexp,/home/ubuntu/Desktop/panara,yes,no,mono,no,18,no,white,no,yes,768,43,43,/home/ubuntu/Desktop/panara/subject-106.csv,Jazzy James,3.1.3,4.2.4.wav,4.2.4.wav,4.2.2.wav,0,1,NA,1,NA,969,NA,969,NA,4552761,i,2,1024,2,48000,-16,experiment,4.2.2.wav,4.2.4.wav,4.2.4.wav,106,even,4797878,4800312,4799812,4799095,NA,NA,4796878,4801036,1060,NA,NA,4796875,4802005,NA,4796875,4553825,NA,4796878,1063,New experiment,NA,0,0,0,yes,1024
undefined,undefined,undefined,undefined,black,no,legacy,0,uniform,undefined,undefined,undefined,44,44,89,44,44,NA,44,44,0,0,0,44,44,0,44,0,NA,44,0,Fri 14 Jun 2019 11:51:46 AM PDT,500,1000,The main experiment item,yes,NA,ABX_v3.osexp,/home/ubuntu/Desktop/panara,yes,no,mono,no,18,no,white,no,yes,768,44,44,/home/ubuntu/Desktop/panara/subject-106.csv,Jazzy James,3.1.3,5.2.5.wav,5.2.3.wav,5.2.3.wav,0,0,NA,0,NA,1020,NA,1020,NA,4552761,i,2,1024,2,48000,-16,experiment,5.2.3.wav,5.2.5.wav,5.2.3.wav,106,even,4803172,4805650,4805150,4804435,NA,NA,4802171,4806369,1060,NA,NA,4802169,4807389,NA,4802169,4553825,NA,4802172,1063,New experiment,NA,0,0,0,yes,1024
undefined,undefined,undefined,undefined,black,no,legacy,0,uniform,undefined,undefined,undefined,45,45,91,45,45,NA,45,45,0,0,0,45,45,0,45,0,NA,45,0,Fri 14 Jun 2019 11:51:46 AM PDT,500,1000,The main experiment item,yes,NA,ABX_v3.osexp,/home/ubuntu/Desktop/panara,yes,no,mono,no,18,no,white,no,yes,768,45,45,/home/ubuntu/Desktop/panara/subject-106.csv,Jazzy James,3.1.3,4.1.5.wav,4.1.5.wav,4.1.3.wav,0,1,NA,1,NA,808,NA,808,NA,4552761,i,2,1024,2,48000,-16,experiment,4.1.3.wav,4.1.5.wav,4.1.5.wav,106,even,4808575,4811042,4810542,4809789,NA,NA,4807574,4811764,1060,NA,NA,4807572,4812573,NA,4807572,4553825,NA,4807575,1063,New experiment,NA,0,0,0,yes,1024
undefined,undefined,undefined,undefined,black,no,legacy,0,uniform,undefined,undefined,undefined,46,46,93,46,46,NA,46,46,0,0,0,46,46,0,46,0,NA,46,0,Fri 14 Jun 2019 11:51:46 AM PDT,500,1000,The main experiment item,yes,NA,ABX_v3.osexp,/home/ubuntu/Desktop/panara,no,no,mono,no,18,no,white,no,yes,768,46,46,/home/ubuntu/Desktop/panara/subject-106.csv,Jazzy James,3.1.3,3.2.3.wav,3.2.3.wav,3.2.5.wav,0,0,NA,0,NA,1909,NA,1909,NA,4552761,i,2,1024,2,48000,-16,experiment,3.2.3.wav,3.2.5.wav,3.2.3.wav,106,even,4813757,4816282,4815782,4815031,NA,NA,4812756,4817056,1060,NA,NA,4812754,4818965,NA,4812754,4553825,NA,4812757,1063,New experiment,NA,0,0,0,yes,1024
undefined,undefined,undefined,undefined,black,no,legacy,0,uniform,undefined,undefined,undefined,47,47,95,47,47,NA,47,47,0,0,0,47,47,0,47,0,NA,47,0,Fri 14 Jun 2019 11:51:46 AM PDT,500,1000,The main experiment item,yes,NA,ABX_v3.osexp,/home/ubuntu/Desktop/panara,yes,no,mono,no,18,no,white,no,yes,768,47,47,/home/ubuntu/Desktop/panara/subject-106.csv,Jazzy James,3.1.3,1.2.5.wav,1.2.5.wav,1.2.3.wav,0,1,NA,1,NA,572,NA,572,NA,4552761,i,2,1024,2,48000,-16,experiment,1.2.3.wav,1.2.5.wav,1.2.5.wav,106,even,4820135,4822702,4822202,4821423,NA,NA,4819135,4823471,1060,NA,NA,4819132,4824044,NA,4819132,4553825,NA,4819135,1063,New experiment,NA,0,0,0,yes,1024
undefined,undefined,undefined,undefined,black,no,legacy,0,uniform,undefined,undefined,undefined,48,48,97,48,48,NA,48,48,0,0,0,48,48,0,48,0,NA,48,0,Fri 14 Jun 2019 11:51:46 AM PDT,500,1000,The main experiment item,yes,NA,ABX_v3.osexp,/home/ubuntu/Desktop/panara,no,no,mono,no,18,no,white,no,yes,768,48,48,/home/ubuntu/Desktop/panara/subject-106.csv,Jazzy James,3.1.3,1.1.2.wav,1.1.2.wav,1.1.4.wav,0,1,NA,1,NA,715,NA,715,NA,4552761,i,2,1024,2,48000,-16,experiment,1.1.2.wav,1.1.4.wav,1.1.2.wav,106,even,4825243,4827808,4827308,4826528,NA,NA,4824242,4828584,1060,NA,NA,4824239,4829300,NA,4824239,4553825,NA,4824243,1063,New experiment,NA,0,0,0,yes,1024
undefined,undefined,undefined,undefined,black,no,legacy,0,uniform,undefined,undefined,undefined,49,49,99,49,49,NA,49,49,0,0,0,49,49,0,49,0,NA,49,0,Fri 14 Jun 2019 11:51:46 AM PDT,500,1000,The main experiment item,yes,NA,ABX_v3.osexp,/home/ubuntu/Desktop/panara,no,no,mono,no,18,no,white,no,yes,768,49,49,/home/ubuntu/Desktop/panara/subject-106.csv,Jazzy James,3.1.3,2.2.3.wav,2.2.3.wav,2.2.5.wav,0,1,NA,1,NA,524,NA,524,NA,4552761,i,2,1024,2,48000,-16,experiment,2.2.3.wav,2.2.5.wav,2.2.3.wav,106,even,4830477,4832950,4832450,4831696,NA,NA,4829477,4833711,1060,NA,NA,4829474,4834235,NA,4829474,4553825,NA,4829477,1063,New experiment,NA,0,0,0,yes,1024
undefined,undefined,undefined,undefined,black,no,legacy,0,uniform,undefined,undefined,undefined,50,50,101,50,50,NA,50,50,0,0,0,50,50,0,50,0,NA,50,0,Fri 14 Jun 2019 11:51:46 AM PDT,500,1000,The main experiment item,yes,NA,ABX_v3.osexp,/home/ubuntu/Desktop/panara,yes,no,mono,no,18,no,white,no,yes,768,50,50,/home/ubuntu/Desktop/panara/subject-106.csv,Jazzy James,3.1.3,2.2.5.wav,2.2.5.wav,2.2.3.wav,0,0,m,0,NA,2387,22627,2387,NA,4552761,i,2,1024,2,48000,-16,experiment,2.2.3.wav,2.2.5.wav,2.2.5.wav,106,even,4858013,4860594,4860093,4859381,4834382,NA,4857012,4861342,1060,NA,NA,4834379,4863729,NA,4834379,4553825,NA,4857013,1063,New experiment,NA,0,0,0,yes,1024
undefined,undefined,undefined,undefined,black,no,legacy,0,uniform,undefined,undefined,undefined,51,51,103,51,51,NA,51,51,0,0,0,51,51,0,51,0,NA,51,0,Fri 14 Jun 2019 11:51:46 AM PDT,500,1000,The main experiment item,yes,NA,ABX_v3.osexp,/home/ubuntu/Desktop/panara,no,no,mono,no,18,no,white,no,yes,768,51,51,/home/ubuntu/Desktop/panara/subject-106.csv,Jazzy James,3.1.3,1.1.1.wav,1.1.3.wav,1.1.3.wav,0,0,m,0,NA,547,22627,547,NA,4552761,i,2,1024,2,48000,-16,experiment,1.1.1.wav,1.1.3.wav,1.1.3.wav,106,even,4864893,4867494,4866994,4866187,4834382,NA,4863893,4868310,1060,NA,NA,4863890,4868858,NA,4863890,4553825,NA,4863893,1063,New experiment,NA,0,0,0,yes,1024
undefined,undefined,undefined,undefined,black,no,legacy,0,uniform,undefined,undefined,undefined,52,52,105,52,52,NA,52,52,0,0,0,52,52,0,52,0,NA,52,0,Fri 14 Jun 2019 11:51:46 AM PDT,500,1000,The main experiment item,yes,NA,ABX_v3.osexp,/home/ubuntu/Desktop/panara,yes,no,mono,no,18,no,white,no,yes,768,52,52,/home/ubuntu/Desktop/panara/subject-106.csv,Jazzy James,3.1.3,2.1.3.wav,2.1.1.wav,2.1.1.wav,0,0,m,0,NA,1020,22627,1020,NA,4552761,i,2,1024,2,48000,-16,experiment,2.1.1.wav,2.1.3.wav,2.1.1.wav,106,even,4870001,4872498,4871998,4871265,4834382,NA,4869001,4873284,1060,NA,NA,4869000,4874305,NA,4869000,4553825,NA,4869001,1063,New experiment,NA,0,0,0,yes,1024
undefined,undefined,undefined,undefined,black,no,legacy,0,uniform,undefined,undefined,undefined,53,53,107,53,53,NA,53,53,0,0,0,53,53,0,53,0,NA,53,0,Fri 14 Jun 2019 11:51:46 AM PDT,500,1000,The main experiment item,yes,NA,ABX_v3.osexp,/home/ubuntu/Desktop/panara,no,no,mono,no,18,no,white,no,yes,768,53,53,/home/ubuntu/Desktop/panara/subject-106.csv,Jazzy James,3.1.3,5.2.1.wav,5.2.3.wav,5.2.3.wav,0,0,m,0,NA,501,22627,501,NA,4552761,i,2,1024,2,48000,-16,experiment,5.2.1.wav,5.2.3.wav,5.2.3.wav,106,even,4875457,4877916,4877416,4876683,4834382,NA,4874457,4878659,1060,NA,NA,4874454,4879160,NA,4874454,4553825,NA,4874457,1063,New experiment,NA,0,0,0,yes,1024
undefined,undefined,undefined,undefined,black,no,legacy,0,uniform,undefined,undefined,undefined,54,54,109,54,54,NA,54,54,0,0,0,54,54,0,54,0,NA,54,0,Fri 14 Jun 2019 11:51:46 AM PDT,500,1000,The main experiment item,yes,NA,ABX_v3.osexp,/home/ubuntu/Desktop/panara,no,no,mono,no,18,no,white,no,yes,768,0,53,/home/ubuntu/Desktop/panara/subject-106.csv,Jazzy James,3.1.3,4.1.2.wav,2.1.2.wav,2.1.4.wav,0,0,m,0,NA,688,22627,688,NA,4552761,i,2,1024,2,48000,-16,experiment,4.1.2.wav,2.1.4.wav,2.1.2.wav,106,even,4880373,4882847,4882347,4881611,4834382,NA,4879372,4883591,1060,NA,NA,4879370,4884280,4879266,4879370,4553825,NA,4879373,1063,New experiment,NA,0,0,0,yes,1024
undefined,undefined,undefined,undefined,black,no,legacy,0,uniform,undefined,undefined,undefined,55,55,111,55,55,NA,55,55,0,0,0,55,55,0,55,0,NA,55,0,Fri 14 Jun 2019 11:51:46 AM PDT,500,1000,The main experiment item,yes,NA,ABX_v3.osexp,/home/ubuntu/Desktop/panara,yes,no,mono,no,18,no,white,no,yes,768,1,53,/home/ubuntu/Desktop/panara/subject-106.csv,Jazzy James,3.1.3,4.2.3.wav,4.2.1.wav,2.2.1.wav,0,1,m,1,NA,659,22627,659,NA,4552761,i,2,1024,2,48000,-16,experiment,2.2.1.wav,4.2.3.wav,4.2.1.wav,106,even,4885440,4887946,4887446,4886701,4834382,NA,4884440,4888660,1060,NA,NA,4884438,4889320,4879266,4884438,4553825,NA,4884440,1063,New experiment,NA,0,0,0,yes,1024
undefined,undefined,undefined,undefined,black,no,legacy,0,uniform,undefined,undefined,undefined,56,56,113,56,56,NA,56,56,0,0,0,56,56,0,56,0,NA,56,0,Fri 14 Jun 2019 11:51:46 AM PDT,500,1000,The main experiment item,yes,NA,ABX_v3.osexp,/home/ubuntu/Desktop/panara,no,no,mono,no,18,no,white,no,yes,768,2,53,/home/ubuntu/Desktop/panara/subject-106.csv,Jazzy James,3.1.3,2.1.2.wav,2.1.4.wav,4.1.4.wav,0,1,m,1,NA,1671,22627,1671,NA,4552761,i,2,1024,2,48000,-16,experiment,2.1.2.wav,4.1.4.wav,2.1.4.wav,106,even,4890544,4893045,4892545,4891808,4834382,NA,4889543,4893776,1060,NA,NA,4889541,4895447,4879266,4889541,4553825,NA,4889544,1063,New experiment,NA,0,0,0,yes,1024
undefined,undefined,undefined,undefined,black,no,legacy,0,uniform,undefined,undefined,undefined,57,57,115,57,57,NA,57,57,0,0,0,57,57,0,57,0,NA,57,0,Fri 14 Jun 2019 11:51:46 AM PDT,500,1000,The main experiment item,yes,NA,ABX_v3.osexp,/home/ubuntu/Desktop/panara,no,no,mono,no,18,no,white,no,yes,768,3,53,/home/ubuntu/Desktop/panara/subject-106.csv,Jazzy James,3.1.3,1.2.2.wav,1.2.4.wav,2.2.4.wav,0,1,m,1,NA,1639,22627,1639,NA,4552761,i,2,1024,2,48000,-16,experiment,1.2.2.wav,2.2.4.wav,1.2.4.wav,106,even,4896599,4899137,4898637,4897866,4834382,NA,4895598,4899887,1060,NA,NA,4895596,4901527,4879266,4895596,4553825,NA,4895599,1063,New experiment,NA,0,0,0,yes,1024
undefined,undefined,undefined,undefined,black,no,legacy,0,uniform,undefined,undefined,undefined,58,58,117,58,58,NA,58,58,0,0,0,58,58,0,58,0,NA,58,0,Fri 14 Jun 2019 11:51:46 AM PDT,500,1000,The main experiment item,yes,NA,ABX_v3.osexp,/home/ubuntu/Desktop/panara,no,no,mono,no,18,no,white,no,yes,768,4,53,/home/ubuntu/Desktop/panara/subject-106.csv,Jazzy James,3.1.3,3.1.3.wav,3.1.5.wav,3.2.5.wav,0,1,m,1,NA,2036,22627,2036,NA,4552761,i,2,1024,2,48000,-16,experiment,3.1.3.wav,3.2.5.wav,3.1.5.wav,106,even,4902684,4905229,4904729,4903940,4834382,NA,4901684,4906002,1060,NA,NA,4901682,4908038,4879266,4901681,4553825,NA,4901684,1063,New experiment,NA,0,0,0,yes,1024
undefined,undefined,undefined,undefined,black,no,legacy,0,uniform,undefined,undefined,undefined,59,59,119,59,59,NA,59,59,0,0,0,59,59,0,59,0,NA,59,0,Fri 14 Jun 2019 11:51:46 AM PDT,500,1000,The main experiment item,yes,NA,ABX_v3.osexp,/home/ubuntu/Desktop/panara,yes,no,mono,no,18,no,white,no,yes,768,5,53,/home/ubuntu/Desktop/panara/subject-106.csv,Jazzy James,3.1.3,2.2.3.wav,2.2.1.wav,4.2.1.wav,0,1,m,1,NA,900,22627,900,NA,4552761,i,2,1024,2,48000,-16,experiment,4.2.1.wav,2.2.3.wav,2.2.1.wav,106,even,4909184,4911625,4911125,4910400,4834382,NA,4908184,4912338,1060,NA,NA,4908181,4913238,4879266,4908181,4553825,NA,4908184,1063,New experiment,NA,0,0,0,yes,1024
undefined,undefined,undefined,undefined,black,no,legacy,0,uniform,undefined,undefined,undefined,60,60,121,60,60,NA,60,60,0,0,0,60,60,0,60,0,NA,60,0,Fri 14 Jun 2019 11:51:46 AM PDT,500,1000,The main experiment item,yes,NA,ABX_v3.osexp,/home/ubuntu/Desktop/panara,no,no,mono,no,18,no,white,no,yes,768,6,53,/home/ubuntu/Desktop/panara/subject-106.csv,Jazzy James,3.1.3,1.1.2.wav,1.1.4.wav,3.1.4.wav,0,1,m,1,NA,1181,22627,1181,NA,4552761,i,2,1024,2,48000,-16,experiment,1.1.2.wav,3.1.4.wav,1.1.4.wav,106,even,4914391,4916935,4916435,4915669,4834382,NA,4913391,4917713,1060,NA,NA,4913389,4918895,4879266,4913388,4553825,NA,4913391,1063,New experiment,NA,0,0,0,yes,1024
undefined,undefined,undefined,undefined,black,no,legacy,0,uniform,undefined,undefined,undefined,61,61,123,61,61,NA,61,61,0,0,0,61,61,0,61,0,NA,61,0,Fri 14 Jun 2019 11:51:46 AM PDT,500,1000,The main experiment item,yes,NA,ABX_v3.osexp,/home/ubuntu/Desktop/panara,no,no,mono,no,18,no,white,no,yes,768,7,53,/home/ubuntu/Desktop/panara/subject-106.csv,Jazzy James,3.1.3,2.2.2.wav,1.2.2.wav,1.2.4.wav,0,0,m,0,NA,1134,22627,1134,NA,4552761,i,2,1024,2,48000,-16,experiment,2.2.2.wav,1.2.4.wav,1.2.2.wav,106,even,4920040,4922523,4922023,4921267,4834382,NA,4919040,4923287,1060,NA,NA,4919038,4924421,4879266,4919038,4553825,NA,4919040,1063,New experiment,NA,0,0,0,yes,1024
undefined,undefined,undefined,undefined,black,no,legacy,0,uniform,undefined,undefined,undefined,62,62,125,62,62,NA,62,62,0,0,0,62,62,0,62,0,NA,62,0,Fri 14 Jun 2019 11:51:46 AM PDT,500,1000,The main experiment item,yes,NA,ABX_v3.osexp,/home/ubuntu/Desktop/panara,no,no,mono,no,18,no,white,no,yes,768,8,53,/home/ubuntu/Desktop/panara/subject-106.csv,Jazzy James,3.1.3,3.2.1.wav,3.2.3.wav,1.2.3.wav,0,1,m,1,NA,712,22627,712,NA,4552761,i,2,1024,2,48000,-16,experiment,3.2.1.wav,1.2.3.wav,3.2.3.wav,106,even,4925569,4928094,4927594,4926816,4834382,NA,4924569,4928868,1060,NA,NA,4924567,4929581,4879266,4924567,4553825,NA,4924569,1063,New experiment,NA,0,0,0,yes,1024
undefined,undefined,undefined,undefined,black,no,legacy,0,uniform,undefined,undefined,undefined,63,63,127,63,63,NA,63,63,0,0,0,63,63,0,63,0,NA,63,0,Fri 14 Jun 2019 11:51:46 AM PDT,500,1000,The main experiment item,yes,NA,ABX_v3.osexp,/home/ubuntu/Desktop/panara,yes,no,mono,no,18,no,white,no,yes,768,9,53,/home/ubuntu/Desktop/panara/subject-106.csv,Jazzy James,3.1.3,4.1.5.wav,4.2.5.wav,4.2.3.wav,0,1,m,1,NA,884,22627,884,NA,4552761,i,2,1024,2,48000,-16,experiment,4.2.3.wav,4.1.5.wav,4.2.5.wav,106,even,4930714,4933140,4932640,4931924,4834382,NA,4929713,4933888,1060,NA,NA,4929711,4934773,4879266,4929711,4553825,NA,4929714,1063,New experiment,NA,0,0,0,yes,1024
undefined,undefined,undefined,undefined,black,no,legacy,0,uniform,undefined,undefined,undefined,64,64,129,64,64,NA,64,64,0,0,0,64,64,0,64,0,NA,64,0,Fri 14 Jun 2019 11:51:46 AM PDT,500,1000,The main experiment item,yes,NA,ABX_v3.osexp,/home/ubuntu/Desktop/panara,no,no,mono,no,18,no,white,no,yes,768,10,53,/home/ubuntu/Desktop/panara/subject-106.csv,Jazzy James,3.1.3,1.1.3.wav,1.1.5.wav,2.1.5.wav,0,1,m,1,NA,1238,22627,1238,NA,4552761,i,2,1024,2,48000,-16,experiment,1.1.3.wav,2.1.5.wav,1.1.5.wav,106,even,4935936,4938540,4938040,4937239,4834382,NA,4934935,4939302,1060,NA,NA,4934932,4940540,4879266,4934932,4553825,NA,4934936,1063,New experiment,NA,0,0,0,yes,1024
undefined,undefined,undefined,undefined,black,no,legacy,0,uniform,undefined,undefined,undefined,65,65,131,65,65,NA,65,65,0,0,0,65,65,0,65,0,NA,65,0,Fri 14 Jun 2019 11:51:46 AM PDT,500,1000,The main experiment item,yes,NA,ABX_v3.osexp,/home/ubuntu/Desktop/panara,yes,no,mono,no,18,no,white,no,yes,768,11,53,/home/ubuntu/Desktop/panara/subject-106.csv,Jazzy James,3.1.3,1.1.4.wav,1.1.2.wav,1.2.2.wav,0,0,m,0,NA,2377,22627,2377,NA,4552761,i,2,1024,2,48000,-16,experiment,1.2.2.wav,1.1.4.wav,1.1.2.wav,106,even,4941713,4944275,4943775,4943004,4834382,NA,4940713,4945066,1060,NA,NA,4940711,4947444,4879266,4940711,4553825,NA,4940713,1063,New experiment,NA,0,0,0,yes,1024
undefined,undefined,undefined,undefined,black,no,legacy,0,uniform,undefined,undefined,undefined,66,66,133,66,66,NA,66,66,0,0,0,66,66,0,66,0,NA,66,0,Fri 14 Jun 2019 11:51:46 AM PDT,500,1000,The main experiment item,yes,NA,ABX_v3.osexp,/home/ubuntu/Desktop/panara,yes,no,mono,no,18,no,white,no,yes,768,12,53,/home/ubuntu/Desktop/panara/subject-106.csv,Jazzy James,3.1.3,1.2.4.wav,1.1.4.wav,1.1.2.wav,0,1,m,1,NA,629,22627,629,NA,4552761,i,2,1024,2,48000,-16,experiment,1.1.2.wav,1.2.4.wav,1.1.4.wav,106,even,4948609,4951123,4950623,4949846,4834382,NA,4947608,4951910,1060,NA,NA,4947606,4952540,4879266,4947606,4553825,NA,4947609,1063,New experiment,NA,0,0,0,yes,1024
undefined,undefined,undefined,undefined,black,no,legacy,0,uniform,undefined,undefined,undefined,67,67,135,67,67,NA,67,67,0,0,0,67,67,0,67,0,NA,67,0,Fri 14 Jun 2019 11:51:46 AM PDT,500,1000,The main experiment item,yes,NA,ABX_v3.osexp,/home/ubuntu/Desktop/panara,yes,no,mono,no,18,no,white,no,yes,768,13,53,/home/ubuntu/Desktop/panara/subject-106.csv,Jazzy James,3.1.3,4.2.3.wav,4.2.1.wav,4.1.1.wav,0,0,m,0,NA,872,22627,872,NA,4552761,i,2,1024,2,48000,-16,experiment,4.1.1.wav,4.2.3.wav,4.2.1.wav,106,even,4953726,4956208,4955708,4954986,4834382,NA,4952726,4956923,1060,NA,NA,4952723,4957795,4879266,4952723,4553825,NA,4952726,1063,New experiment,NA,0,0,0,yes,1024
undefined,undefined,undefined,undefined,black,no,legacy,0,uniform,undefined,undefined,undefined,68,68,137,68,68,NA,68,68,0,0,0,68,68,0,68,0,NA,68,0,Fri 14 Jun 2019 11:51:46 AM PDT,500,1000,The main experiment item,yes,NA,ABX_v3.osexp,/home/ubuntu/Desktop/panara,yes,no,mono,no,18,no,white,no,yes,768,14,53,/home/ubuntu/Desktop/panara/subject-106.csv,Jazzy James,3.1.3,2.1.5.wav,2.2.5.wav,2.2.3.wav,0,0,m,0,NA,1387,22627,1387,NA,4552761,i,2,1024,2,48000,-16,experiment,2.2.3.wav,2.1.5.wav,2.2.5.wav,106,even,4958975,4961427,4960927,4960214,4834382,NA,4957975,4962143,1060,NA,NA,4957972,4963531,4879266,4957972,4553825,NA,4957975,1063,New experiment,NA,0,0,0,yes,1024
undefined,undefined,undefined,undefined,black,no,legacy,0,uniform,undefined,undefined,undefined,69,69,139,69,69,NA,69,69,0,0,0,69,69,0,69,0,NA,69,0,Fri 14 Jun 2019 11:51:46 AM PDT,500,1000,The main experiment item,yes,NA,ABX_v3.osexp,/home/ubuntu/Desktop/panara,no,no,mono,no,18,no,white,no,yes,768,15,53,/home/ubuntu/Desktop/panara/subject-106.csv,Jazzy James,3.1.3,2.2.2.wav,2.1.2.wav,2.1.4.wav,0,1,m,1,NA,1132,22627,1132,NA,4552761,i,2,1024,2,48000,-16,experiment,2.2.2.wav,2.1.4.wav,2.1.2.wav,106,even,4964719,4967175,4966675,4965939,4834382,NA,4963719,4967926,1060,NA,NA,4963717,4969058,4879266,4963717,4553825,NA,4963719,1063,New experiment,NA,0,0,0,yes,1024
undefined,undefined,undefined,undefined,black,no,legacy,0,uniform,undefined,undefined,undefined,70,70,141,70,70,NA,70,70,0,0,0,70,70,0,70,0,NA,70,0,Fri 14 Jun 2019 11:51:46 AM PDT,500,1000,The main experiment item,yes,NA,ABX_v3.osexp,/home/ubuntu/Desktop/panara,yes,no,mono,no,18,no,white,no,yes,768,16,53,/home/ubuntu/Desktop/panara/subject-106.csv,Jazzy James,3.1.3,4.2.5.wav,4.2.3.wav,4.1.3.wav,0,0,m,0,NA,836,22627,836,NA,4552761,i,2,1024,2,48000,-16,experiment,4.1.3.wav,4.2.5.wav,4.2.3.wav,106,even,4970215,4972711,4972211,4971457,4834382,NA,4969214,4973438,1060,NA,NA,4969212,4974274,4879266,4969212,4553825,NA,4969215,1063,New experiment,NA,0,0,0,yes,1024
undefined,undefined,undefined,undefined,black,no,legacy,0,uniform,undefined,undefined,undefined,71,71,143,71,71,NA,71,71,0,0,0,71,71,0,71,0,NA,71,0,Fri 14 Jun 2019 11:51:46 AM PDT,500,1000,The main experiment item,yes,NA,ABX_v3.osexp,/home/ubuntu/Desktop/panara,no,no,mono,no,18,no,white,no,yes,768,17,53,/home/ubuntu/Desktop/panara/subject-106.csv,Jazzy James,3.1.3,1.2.2.wav,3.2.2.wav,3.2.4.wav,0,0,m,0,NA,779,22627,779,NA,4552761,i,2,1024,2,48000,-16,experiment,1.2.2.wav,3.2.4.wav,3.2.2.wav,106,even,4975452,4978013,4977513,4976747,4834382,NA,4974452,4978774,1060,NA,NA,4974450,4979554,4879266,4974450,4553825,NA,4974452,1063,New experiment,NA,0,0,0,yes,1024
undefined,undefined,undefined,undefined,black,no,legacy,0,uniform,undefined,undefined,undefined,72,72,145,72,72,NA,72,72,0,0,0,72,72,0,72,0,NA,72,0,Fri 14 Jun 2019 11:51:46 AM PDT,500,1000,The main experiment item,yes,NA,ABX_v3.osexp,/home/ubuntu/Desktop/panara,no,no,mono,no,18,no,white,no,yes,768,18,53,/home/ubuntu/Desktop/panara/subject-106.csv,Jazzy James,3.1.3,3.1.1.wav,3.1.3.wav,4.1.3.wav,0,1,m,1,NA,1172,22627,1172,NA,4552761,i,2,1024,2,48000,-16,experiment,3.1.1.wav,4.1.3.wav,3.1.3.wav,106,even,4980708,4983211,4982711,4981959,4834382,NA,4979707,4983925,1060,NA,NA,4979705,4985097,4879266,4979705,4553825,NA,4979708,1063,New experiment,NA,0,0,0,yes,1024
undefined,undefined,undefined,undefined,black,no,legacy,0,uniform,undefined,undefined,undefined,73,73,147,73,73,NA,73,73,0,0,0,73,73,0,73,0,NA,73,0,Fri 14 Jun 2019 11:51:46 AM PDT,500,1000,The main experiment item,yes,NA,ABX_v3.osexp,/home/ubuntu/Desktop/panara,yes,no,mono,no,18,no,white,no,yes,768,19,53,/home/ubuntu/Desktop/panara/subject-106.csv,Jazzy James,3.1.3,3.2.3.wav,4.2.3.wav,4.2.1.wav,0,0,m,0,NA,1636,22627,1636,NA,4552761,i,2,1024,2,48000,-16,experiment,4.2.1.wav,3.2.3.wav,4.2.3.wav,106,even,4986273,4988776,4988276,4987501,4834382,NA,4985272,4989492,1060,NA,NA,4985269,4991129,4879266,4985269,4553825,NA,4985273,1063,New experiment,NA,0,0,0,yes,1024
undefined,undefined,undefined,undefined,black,no,legacy,0,uniform,undefined,undefined,undefined,74,74,149,74,74,NA,74,74,0,0,0,74,74,0,74,0,NA,74,0,Fri 14 Jun 2019 11:51:46 AM PDT,500,1000,The main experiment item,yes,NA,ABX_v3.osexp,/home/ubuntu/Desktop/panara,no,no,mono,no,18,no,white,no,yes,768,20,53,/home/ubuntu/Desktop/panara/subject-106.csv,Jazzy James,3.1.3,3.1.3.wav,1.1.3.wav,1.1.5.wav,0,0,m,0,NA,1310,22627,1310,NA,4552761,i,2,1024,2,48000,-16,experiment,3.1.3.wav,1.1.5.wav,1.1.3.wav,106,even,4992331,4994862,4994362,4993573,4834382,NA,4991330,4995635,1060,NA,NA,4991328,4996946,4879266,4991328,4553825,NA,4991331,1063,New experiment,NA,0,0,0,yes,1024
undefined,undefined,undefined,undefined,black,no,legacy,0,uniform,undefined,undefined,undefined,75,75,151,75,75,NA,75,75,0,0,0,75,75,0,75,0,NA,75,0,Fri 14 Jun 2019 11:51:46 AM PDT,500,1000,The main experiment item,yes,NA,ABX_v3.osexp,/home/ubuntu/Desktop/panara,yes,no,mono,no,18,no,white,no,yes,768,21,53,/home/ubuntu/Desktop/panara/subject-106.csv,Jazzy James,3.1.3,4.1.5.wav,4.1.3.wav,4.2.3.wav,0,0,m,0,NA,738,22627,738,NA,4552761,i,2,1024,2,48000,-16,experiment,4.2.3.wav,4.1.5.wav,4.1.3.wav,106,even,4998115,5000575,5000075,4999364,4834382,NA,4997114,5001334,1060,NA,NA,4997112,5002072,4879266,4997112,4553825,NA,4997115,1063,New experiment,NA,0,0,0,yes,1024
undefined,undefined,undefined,undefined,black,no,legacy,0,uniform,undefined,undefined,undefined,76,76,153,76,76,NA,76,76,0,0,0,76,76,0,76,0,NA,76,0,Fri 14 Jun 2019 11:51:46 AM PDT,500,1000,The main experiment item,yes,NA,ABX_v3.osexp,/home/ubuntu/Desktop/panara,yes,no,mono,no,18,no,white,no,yes,768,22,53,/home/ubuntu/Desktop/panara/subject-106.csv,Jazzy James,3.1.3,1.1.3.wav,1.1.1.wav,2.1.1.wav,0,0,m,0,NA,589,22627,589,NA,4552761,i,2,1024,2,48000,-16,experiment,2.1.1.wav,1.1.3.wav,1.1.1.wav,106,even,5003254,5005839,5005339,5004564,4834382,NA,5002254,5006586,1060,NA,NA,5002252,5007176,4879266,5002251,4553825,NA,5002254,1063,New experiment,NA,0,0,0,yes,1024
undefined,undefined,undefined,undefined,black,no,legacy,0,uniform,undefined,undefined,undefined,77,77,155,77,77,NA,77,77,0,0,0,77,77,0,77,0,NA,77,0,Fri 14 Jun 2019 11:51:46 AM PDT,500,1000,The main experiment item,yes,NA,ABX_v3.osexp,/home/ubuntu/Desktop/panara,no,no,mono,no,18,no,white,no,yes,768,23,53,/home/ubuntu/Desktop/panara/subject-106.csv,Jazzy James,3.1.3,3.1.2.wav,3.1.4.wav,1.1.4.wav,0,1,m,1,NA,428,22627,428,NA,4552761,i,2,1024,2,48000,-16,experiment,3.1.2.wav,1.1.4.wav,3.1.4.wav,106,even,5008364,5010919,5010419,5009639,4834382,NA,5007363,5011707,1060,NA,NA,5007361,5012136,4879266,5007361,4553825,NA,5007364,1063,New experiment,NA,0,0,0,yes,1024
undefined,undefined,undefined,undefined,black,no,legacy,0,uniform,undefined,undefined,undefined,78,78,157,78,78,NA,78,78,0,0,0,78,78,0,78,0,NA,78,0,Fri 14 Jun 2019 11:51:46 AM PDT,500,1000,The main experiment item,yes,NA,ABX_v3.osexp,/home/ubuntu/Desktop/panara,no,no,mono,no,18,no,white,no,yes,768,24,53,/home/ubuntu/Desktop/panara/subject-106.csv,Jazzy James,3.1.3,1.1.2.wav,1.1.4.wav,2.1.4.wav,0,1,m,1,NA,1170,22627,1170,NA,4552761,i,2,1024,2,48000,-16,experiment,1.1.2.wav,2.1.4.wav,1.1.4.wav,106,even,5013309,5015917,5015417,5014628,4834382,NA,5012309,5016678,1060,NA,NA,5012306,5017848,4879266,5012306,4553825,NA,5012309,1063,New experiment,NA,0,0,0,yes,1024
undefined,undefined,undefined,undefined,black,no,legacy,0,uniform,undefined,undefined,undefined,79,79,159,79,79,NA,79,79,0,0,0,79,79,0,79,0,NA,79,0,Fri 14 Jun 2019 11:51:46 AM PDT,500,1000,The main experiment item,yes,NA,ABX_v3.osexp,/home/ubuntu/Desktop/panara,no,no,mono,no,18,no,white,no,yes,768,25,53,/home/ubuntu/Desktop/panara/subject-106.csv,Jazzy James,3.1.3,1.2.2.wav,1.2.4.wav,1.1.4.wav,0,0,m,0,NA,1006,22627,1006,NA,4552761,i,2,1024,2,48000,-16,experiment,1.2.2.wav,1.1.4.wav,1.2.4.wav,106,even,5019017,5021521,5021021,5020293,4834382,NA,5018016,5022304,1060,NA,NA,5018014,5023311,4879266,5018013,4553825,NA,5018017,1063,New experiment,NA,0,0,0,yes,1024
undefined,undefined,undefined,undefined,black,no,legacy,0,uniform,undefined,undefined,undefined,80,80,161,80,80,NA,80,80,0,0,0,80,80,0,80,0,NA,80,0,Fri 14 Jun 2019 11:51:46 AM PDT,500,1000,The main experiment item,yes,NA,ABX_v3.osexp,/home/ubuntu/Desktop/panara,no,no,mono,no,18,no,white,no,yes,768,26,53,/home/ubuntu/Desktop/panara/subject-106.csv,Jazzy James,3.1.3,3.2.2.wav,1.2.2.wav,1.2.4.wav,0,0,m,0,NA,1058,22627,1058,NA,4552761,i,2,1024,2,48000,-16,experiment,3.2.2.wav,1.2.4.wav,1.2.2.wav,106,even,5024483,5027095,5026595,5025789,4834382,NA,5023483,5027829,1060,NA,NA,5023480,5028888,4879266,5023480,4553825,NA,5023483,1063,New experiment,NA,0,0,0,yes,1024
undefined,undefined,undefined,undefined,black,no,legacy,0,uniform,undefined,undefined,undefined,81,81,163,81,81,NA,81,81,0,0,0,81,81,0,81,0,NA,81,0,Fri 14 Jun 2019 11:51:46 AM PDT,500,1000,The main experiment item,yes,NA,ABX_v3.osexp,/home/ubuntu/Desktop/panara,no,no,mono,no,18,no,white,no,yes,768,27,53,/home/ubuntu/Desktop/panara/subject-106.csv,Jazzy James,3.1.3,1.2.1.wav,2.2.1.wav,2.2.3.wav,0,0,m,0,NA,755,22627,755,NA,4552761,i,2,1024,2,48000,-16,experiment,1.2.1.wav,2.2.3.wav,2.2.1.wav,106,even,5030042,5032551,5032051,5031332,4834382,NA,5029042,5033291,1060,NA,NA,5029040,5034046,4879266,5029040,4553825,NA,5029042,1063,New experiment,NA,0,0,0,yes,1024
undefined,undefined,undefined,undefined,black,no,legacy,0,uniform,undefined,undefined,undefined,82,82,165,82,82,NA,82,82,0,0,0,82,82,0,82,0,NA,82,0,Fri 14 Jun 2019 11:51:46 AM PDT,500,1000,The main experiment item,yes,NA,ABX_v3.osexp,/home/ubuntu/Desktop/panara,no,no,mono,no,18,no,white,no,yes,768,28,53,/home/ubuntu/Desktop/panara/subject-106.csv,Jazzy James,3.1.3,2.1.2.wav,4.1.2.wav,4.1.4.wav,0,0,m,0,NA,529,22627,529,NA,4552761,i,2,1024,2,48000,-16,experiment,2.1.2.wav,4.1.4.wav,4.1.2.wav,106,even,5035217,5037700,5037200,5036471,4834382,NA,5034217,5038453,1060,NA,NA,5034215,5038983,4879266,5034215,4553825,NA,5034217,1063,New experiment,NA,0,0,0,yes,1024
undefined,undefined,undefined,undefined,black,no,legacy,0,uniform,undefined,undefined,undefined,83,83,167,83,83,NA,83,83,0,0,0,83,83,0,83,0,NA,83,0,Fri 14 Jun 2019 11:51:46 AM PDT,500,1000,The main experiment item,yes,NA,ABX_v3.osexp,/home/ubuntu/Desktop/panara,yes,no,mono,no,18,no,white,no,yes,768,29,53,/home/ubuntu/Desktop/panara/subject-106.csv,Jazzy James,3.1.3,2.2.5.wav,1.2.5.wav,1.2.3.wav,0,1,m,1,NA,1601,22627,1601,NA,4552761,i,2,1024,2,48000,-16,experiment,1.2.3.wav,2.2.5.wav,1.2.5.wav,106,even,5040169,5042670,5042170,5041409,4834382,NA,5039168,5043444,1060,NA,NA,5039166,5045045,4879266,5039166,4553825,NA,5039169,1063,New experiment,NA,0,0,0,yes,1024
undefined,undefined,undefined,undefined,black,no,legacy,0,uniform,undefined,undefined,undefined,84,84,169,84,84,NA,84,84,0,0,0,84,84,0,84,0,NA,84,0,Fri 14 Jun 2019 11:51:46 AM PDT,500,1000,The main experiment item,yes,NA,ABX_v3.osexp,/home/ubuntu/Desktop/panara,no,no,mono,no,18,no,white,no,yes,768,30,53,/home/ubuntu/Desktop/panara/subject-106.csv,Jazzy James,3.1.3,4.1.1.wav,4.1.3.wav,2.1.3.wav,0,1,m,1,NA,553,22627,553,NA,4552761,i,2,1024,2,48000,-16,experiment,4.1.1.wav,2.1.3.wav,4.1.3.wav,106,even,5046211,5048661,5048161,5047443,4834382,NA,5045210,5049404,1060,NA,NA,5045207,5049958,4879266,5045207,4553825,NA,5045211,1063,New experiment,NA,0,0,0,yes,1024
undefined,undefined,undefined,undefined,black,no,legacy,0,uniform,undefined,undefined,undefined,85,85,171,85,85,NA,85,85,0,0,0,85,85,0,85,0,NA,85,0,Fri 14 Jun 2019 11:51:46 AM PDT,500,1000,The main experiment item,yes,NA,ABX_v3.osexp,/home/ubuntu/Desktop/panara,no,no,mono,no,18,no,white,no,yes,768,31,53,/home/ubuntu/Desktop/panara/subject-106.csv,Jazzy James,3.1.3,4.1.3.wav,2.1.3.wav,2.1.5.wav,0,1,m,1,NA,2013,22627,2013,NA,4552761,i,2,1024,2,48000,-16,experiment,4.1.3.wav,2.1.5.wav,2.1.3.wav,106,even,5051159,5053630,5053130,5052391,4834382,NA,5050159,5054375,1060,NA,NA,5050157,5056389,4879266,5050157,4553825,NA,5050159,1063,New experiment,NA,0,0,0,yes,1024
undefined,undefined,undefined,undefined,black,no,legacy,0,uniform,undefined,undefined,undefined,86,86,173,86,86,NA,86,86,0,0,0,86,86,0,86,0,NA,86,0,Fri 14 Jun 2019 11:51:46 AM PDT,500,1000,The main experiment item,yes,NA,ABX_v3.osexp,/home/ubuntu/Desktop/panara,yes,no,mono,no,18,no,white,no,yes,768,32,53,/home/ubuntu/Desktop/panara/subject-106.csv,Jazzy James,3.1.3,4.2.5.wav,4.1.5.wav,4.1.3.wav,0,1,m,1,NA,890,22627,890,NA,4552761,i,2,1024,2,48000,-16,experiment,4.1.3.wav,4.2.5.wav,4.1.5.wav,106,even,5057565,5059988,5059488,5058771,4834382,NA,5056565,5060722,1060,NA,NA,5056562,5061612,4879266,5056562,4553825,NA,5056565,1063,New experiment,NA,0,0,0,yes,1024
undefined,undefined,undefined,undefined,black,no,legacy,0,uniform,undefined,undefined,undefined,87,87,175,87,87,NA,87,87,0,0,0,87,87,0,87,0,NA,87,0,Fri 14 Jun 2019 11:51:46 AM PDT,500,1000,The main experiment item,yes,NA,ABX_v3.osexp,/home/ubuntu/Desktop/panara,yes,no,mono,no,18,no,white,no,yes,768,33,53,/home/ubuntu/Desktop/panara/subject-106.csv,Jazzy James,3.1.3,3.1.4.wav,3.1.2.wav,4.1.2.wav,0,0,m,0,NA,709,22627,709,NA,4552761,i,2,1024,2,48000,-16,experiment,4.1.2.wav,3.1.4.wav,3.1.2.wav,106,even,5062787,5065356,5064856,5064080,4834382,NA,5061786,5066103,1060,NA,NA,5061784,5066813,4879266,5061784,4553825,NA,5061787,1063,New experiment,NA,0,0,0,yes,1024
undefined,undefined,undefined,undefined,black,no,legacy,0,uniform,undefined,undefined,undefined,88,88,177,88,88,NA,88,88,0,0,0,88,88,0,88,0,NA,88,0,Fri 14 Jun 2019 11:51:46 AM PDT,500,1000,The main experiment item,yes,NA,ABX_v3.osexp,/home/ubuntu/Desktop/panara,no,no,mono,no,18,no,white,no,yes,768,34,53,/home/ubuntu/Desktop/panara/subject-106.csv,Jazzy James,3.1.3,3.1.2.wav,3.1.4.wav,3.2.4.wav,0,0,m,0,NA,973,22627,973,NA,4552761,i,2,1024,2,48000,-16,experiment,3.1.2.wav,3.2.4.wav,3.1.4.wav,106,even,5067977,5070539,5070039,5069280,4834382,NA,5066976,5071278,1060,NA,NA,5066974,5072252,4879266,5066974,4553825,NA,5066977,1063,New experiment,NA,0,0,0,yes,1024
undefined,undefined,undefined,undefined,black,no,legacy,0,uniform,undefined,undefined,undefined,89,89,179,89,89,NA,89,89,0,0,0,89,89,0,89,0,NA,89,0,Fri 14 Jun 2019 11:51:46 AM PDT,500,1000,The main experiment item,yes,NA,ABX_v3.osexp,/home/ubuntu/Desktop/panara,yes,no,mono,no,18,no,white,no,yes,768,35,53,/home/ubuntu/Desktop/panara/subject-106.csv,Jazzy James,3.1.3,4.1.5.wav,4.1.3.wav,3.1.3.wav,0,1,m,1,NA,461,22627,461,NA,4552761,i,2,1024,2,48000,-16,experiment,3.1.3.wav,4.1.5.wav,4.1.3.wav,106,even,5073426,5075923,5075423,5074660,4834382,NA,5072425,5076678,1060,NA,NA,5072423,5077139,4879266,5072423,4553825,NA,5072426,1063,New experiment,NA,0,0,0,yes,1024
undefined,undefined,undefined,undefined,black,no,legacy,0,uniform,undefined,undefined,undefined,90,90,181,90,90,NA,90,90,0,0,0,90,90,0,90,0,NA,90,0,Fri 14 Jun 2019 11:51:46 AM PDT,500,1000,The main experiment item,yes,NA,ABX_v3.osexp,/home/ubuntu/Desktop/panara,no,no,mono,no,18,no,white,no,yes,768,36,53,/home/ubuntu/Desktop/panara/subject-106.csv,Jazzy James,3.1.3,1.1.1.wav,1.1.3.wav,3.1.3.wav,0,1,m,1,NA,1261,22627,1261,NA,4552761,i,2,1024,2,48000,-16,experiment,1.1.1.wav,3.1.3.wav,1.1.3.wav,106,even,5078324,5080936,5080436,5079635,4834382,NA,5077323,5081694,1060,NA,NA,5077321,5082956,4879266,5077321,4553825,NA,5077324,1063,New experiment,NA,0,0,0,yes,1024
undefined,undefined,undefined,undefined,black,no,legacy,0,uniform,undefined,undefined,undefined,91,91,183,91,91,NA,91,91,0,0,0,91,91,0,91,0,NA,91,0,Fri 14 Jun 2019 11:51:46 AM PDT,500,1000,The main experiment item,yes,NA,ABX_v3.osexp,/home/ubuntu/Desktop/panara,yes,no,mono,no,18,no,white,no,yes,768,37,53,/home/ubuntu/Desktop/panara/subject-106.csv,Jazzy James,3.1.3,1.1.5.wav,1.1.3.wav,1.2.3.wav,0,0,m,0,NA,1207,22627,1207,NA,4552761,i,2,1024,2,48000,-16,experiment,1.2.3.wav,1.1.5.wav,1.1.3.wav,106,even,5084112,5086668,5086168,5085392,4834382,NA,5083112,5087451,1060,NA,NA,5083109,5088659,4879266,5083109,4553825,NA,5083112,1063,New experiment,NA,0,0,0,yes,1024
undefined,undefined,undefined,undefined,black,no,legacy,0,uniform,undefined,undefined,undefined,92,92,185,92,92,NA,92,92,0,0,0,92,92,0,92,0,NA,92,0,Fri 14 Jun 2019 11:51:46 AM PDT,500,1000,The main experiment item,yes,NA,ABX_v3.osexp,/home/ubuntu/Desktop/panara,no,no,mono,no,18,no,white,no,yes,768,38,53,/home/ubuntu/Desktop/panara/subject-106.csv,Jazzy James,3.1.3,2.2.3.wav,1.2.3.wav,1.2.5.wav,0,0,m,0,NA,857,22627,857,NA,4552761,i,2,1024,2,48000,-16,experiment,2.2.3.wav,1.2.5.wav,1.2.3.wav,106,even,5089825,5092350,5091850,5091064,4834382,NA,5088825,5093122,1060,NA,NA,5088822,5093979,4879266,5088822,4553825,NA,5088825,1063,New experiment,NA,0,0,0,yes,1024
undefined,undefined,undefined,undefined,black,no,legacy,0,uniform,undefined,undefined,undefined,93,93,187,93,93,NA,93,93,0,0,0,93,93,0,93,0,NA,93,0,Fri 14 Jun 2019 11:51:46 AM PDT,500,1000,The main experiment item,yes,NA,ABX_v3.osexp,/home/ubuntu/Desktop/panara,no,no,mono,no,18,no,white,no,yes,768,39,53,/home/ubuntu/Desktop/panara/subject-106.csv,Jazzy James,3.1.3,2.1.3.wav,2.1.5.wav,4.1.5.wav,0,0,m,0,NA,1893,22627,1893,NA,4552761,i,2,1024,2,48000,-16,experiment,2.1.3.wav,4.1.5.wav,2.1.5.wav,106,even,5095156,5097656,5097156,5096406,4834382,NA,5094156,5098396,1060,NA,NA,5094153,5100290,4879266,5094153,4553825,NA,5094156,1063,New experiment,NA,0,0,0,yes,1024
undefined,undefined,undefined,undefined,black,no,legacy,0,uniform,undefined,undefined,undefined,94,94,189,94,94,NA,94,94,0,0,0,94,94,0,94,0,NA,94,0,Fri 14 Jun 2019 11:51:46 AM PDT,500,1000,The main experiment item,yes,NA,ABX_v3.osexp,/home/ubuntu/Desktop/panara,yes,no,mono,no,18,no,white,no,yes,768,40,53,/home/ubuntu/Desktop/panara/subject-106.csv,Jazzy James,3.1.3,3.2.5.wav,3.2.3.wav,4.2.3.wav,0,1,m,1,NA,2521,22627,2521,NA,4552761,i,2,1024,2,48000,-16,experiment,4.2.3.wav,3.2.5.wav,3.2.3.wav,106,even,5101460,5103996,5103496,5102741,4834382,NA,5100460,5104752,1060,NA,NA,5100457,5107273,4879266,5100457,4553825,NA,5100460,1063,New experiment,NA,0,0,0,yes,1024
undefined,undefined,undefined,undefined,black,no,legacy,0,uniform,undefined,undefined,undefined,95,95,191,95,95,NA,95,95,0,0,0,95,95,0,95,0,NA,95,0,Fri 14 Jun 2019 11:51:46 AM PDT,500,1000,The main experiment item,yes,NA,ABX_v3.osexp,/home/ubuntu/Desktop/panara,no,no,mono,no,18,no,white,no,yes,768,41,53,/home/ubuntu/Desktop/panara/subject-106.csv,Jazzy James,3.1.3,3.2.1.wav,3.2.3.wav,3.1.3.wav,0,0,m,0,NA,1407,22627,1407,NA,4552761,i,2,1024,2,48000,-16,experiment,3.2.1.wav,3.1.3.wav,3.2.3.wav,106,even,5108448,5110967,5110467,5109712,4834382,NA,5107447,5111705,1060,NA,NA,5107444,5113113,4879266,5107444,4553825,NA,5107448,1063,New experiment,NA,0,0,0,yes,1024
undefined,undefined,undefined,undefined,black,no,legacy,0,uniform,undefined,undefined,undefined,96,96,193,96,96,NA,96,96,0,0,0,96,96,0,96,0,NA,96,0,Fri 14 Jun 2019 11:51:46 AM PDT,500,1000,The main experiment item,yes,NA,ABX_v3.osexp,/home/ubuntu/Desktop/panara,no,no,mono,no,18,no,white,no,yes,768,42,53,/home/ubuntu/Desktop/panara/subject-106.csv,Jazzy James,3.1.3,1.2.2.wav,1.2.4.wav,3.2.4.wav,0,1,m,1,NA,1222,22627,1222,NA,4552761,i,2,1024,2,48000,-16,experiment,1.2.2.wav,3.2.4.wav,1.2.4.wav,106,even,5114270,5116820,5116320,5115570,4834382,NA,5113269,5117595,1060,NA,NA,5113267,5118818,4879266,5113267,4553825,NA,5113270,1063,New experiment,NA,0,0,0,yes,1024
undefined,undefined,undefined,undefined,black,no,legacy,0,uniform,undefined,undefined,undefined,97,97,195,97,97,NA,97,97,0,0,0,97,97,0,97,0,NA,97,0,Fri 14 Jun 2019 11:51:46 AM PDT,500,1000,The main experiment item,yes,NA,ABX_v3.osexp,/home/ubuntu/Desktop/panara,no,no,mono,no,18,no,white,no,yes,768,43,53,/home/ubuntu/Desktop/panara/subject-106.csv,Jazzy James,3.1.3,1.1.2.wav,2.1.2.wav,2.1.4.wav,0,1,m,1,NA,1325,22627,1325,NA,4552761,i,2,1024,2,48000,-16,experiment,1.1.2.wav,2.1.4.wav,2.1.2.wav,106,even,5119984,5122533,5122033,5121287,4834382,NA,5118983,5123290,1060,NA,NA,5118980,5124616,4879266,5118980,4553825,NA,5118984,1063,New experiment,NA,0,0,0,yes,1024
undefined,undefined,undefined,undefined,black,no,legacy,0,uniform,undefined,undefined,undefined,98,98,197,98,98,NA,98,98,0,0,0,98,98,0,98,0,NA,98,0,Fri 14 Jun 2019 11:51:46 AM PDT,500,1000,The main experiment item,yes,NA,ABX_v3.osexp,/home/ubuntu/Desktop/panara,yes,no,mono,no,18,no,white,no,yes,768,44,53,/home/ubuntu/Desktop/panara/subject-106.csv,Jazzy James,3.1.3,4.2.4.wav,4.2.2.wav,4.1.2.wav,0,0,m,0,NA,2314,22627,2314,NA,4552761,i,2,1024,2,48000,-16,experiment,4.1.2.wav,4.2.4.wav,4.2.2.wav,106,even,5125766,5128207,5127707,5126988,4834382,NA,5124766,5128949,1060,NA,NA,5124764,5131264,4879266,5124764,4553825,NA,5124766,1063,New experiment,NA,0,0,0,yes,1024
undefined,undefined,undefined,undefined,black,no,legacy,0,uniform,undefined,undefined,undefined,99,99,199,99,99,NA,99,99,0,0,0,99,99,0,99,0,NA,99,0,Fri 14 Jun 2019 11:51:46 AM PDT,500,1000,The main experiment item,yes,NA,ABX_v3.osexp,/home/ubuntu/Desktop/panara,yes,no,mono,no,18,no,white,no,yes,768,45,53,/home/ubuntu/Desktop/panara/subject-106.csv,Jazzy James,3.1.3,1.2.5.wav,1.2.3.wav,1.1.3.wav,0,0,m,0,NA,1300,22627,1300,NA,4552761,i,2,1024,2,48000,-16,experiment,1.1.3.wav,1.2.5.wav,1.2.3.wav,106,even,5132427,5134987,5134487,5133715,4834382,NA,5131427,5135795,1060,NA,NA,5131424,5137095,4879266,5131424,4553825,NA,5131427,1063,New experiment,NA,0,0,0,yes,1024
undefined,undefined,undefined,undefined,black,no,legacy,0,uniform,undefined,undefined,undefined,100,100,201,100,100,NA,100,100,0,0,0,100,100,0,100,0,NA,100,0,Fri 14 Jun 2019 11:51:46 AM PDT,500,1000,The main experiment item,yes,NA,ABX_v3.osexp,/home/ubuntu/Desktop/panara,no,no,mono,no,18,no,white,no,yes,768,46,53,/home/ubuntu/Desktop/panara/subject-106.csv,Jazzy James,3.1.3,2.1.3.wav,1.1.3.wav,1.1.5.wav,0,0,h,0,NA,1509,28188,1509,NA,4552761,i,2,1024,2,48000,-16,experiment,2.1.3.wav,1.1.5.wav,1.1.3.wav,106,even,5166456,5169014,5168514,5167709,5137265,NA,5165455,5169791,1060,NA,NA,5137262,5171301,4879266,5137262,4553825,NA,5165456,1063,New experiment,NA,0,0,0,yes,1024
undefined,undefined,undefined,undefined,black,no,legacy,0,uniform,undefined,undefined,undefined,101,101,203,101,101,NA,101,101,0,0,0,101,101,0,101,0,NA,101,0,Fri 14 Jun 2019 11:51:46 AM PDT,500,1000,The main experiment item,yes,NA,ABX_v3.osexp,/home/ubuntu/Desktop/panara,no,no,mono,no,18,no,white,no,yes,768,47,53,/home/ubuntu/Desktop/panara/subject-106.csv,Jazzy James,3.1.3,2.2.3.wav,2.1.3.wav,2.1.5.wav,0,1,h,1,NA,858,28188,858,NA,4552761,i,2,1024,2,48000,-16,experiment,2.2.3.wav,2.1.5.wav,2.1.3.wav,106,even,5172433,5174898,5174398,5173648,5137265,NA,5171433,5175634,1060,NA,NA,5171430,5176493,4879266,5171430,4553825,NA,5171433,1063,New experiment,NA,0,0,0,yes,1024
undefined,undefined,undefined,undefined,black,no,legacy,0,uniform,undefined,undefined,undefined,102,102,205,102,102,NA,102,102,0,0,0,102,102,0,102,0,NA,102,0,Fri 14 Jun 2019 11:51:46 AM PDT,500,1000,The main experiment item,yes,NA,ABX_v3.osexp,/home/ubuntu/Desktop/panara,yes,no,mono,no,18,no,white,no,yes,768,48,53,/home/ubuntu/Desktop/panara/subject-106.csv,Jazzy James,3.1.3,1.2.3.wav,1.1.3.wav,1.1.1.wav,0,0,h,0,NA,754,28188,754,NA,4552761,i,2,1024,2,48000,-16,experiment,1.1.1.wav,1.2.3.wav,1.1.3.wav,106,even,5177648,5180237,5179737,5178917,5137265,NA,5176647,5181010,1060,NA,NA,5176645,5181764,4879266,5176645,4553825,NA,5176647,1063,New experiment,NA,0,0,0,yes,1024
undefined,undefined,undefined,undefined,black,no,legacy,0,uniform,undefined,undefined,undefined,103,103,207,103,103,NA,103,103,0,0,0,103,103,0,103,0,NA,103,0,Fri 14 Jun 2019 11:51:46 AM PDT,500,1000,The main experiment item,yes,NA,ABX_v3.osexp,/home/ubuntu/Desktop/panara,yes,no,mono,no,18,no,white,no,yes,768,49,53,/home/ubuntu/Desktop/panara/subject-106.csv,Jazzy James,3.1.3,3.2.3.wav,3.2.1.wav,3.1.1.wav,0,1,h,1,NA,962,28188,962,NA,4552761,i,2,1024,2,48000,-16,experiment,3.1.1.wav,3.2.3.wav,3.2.1.wav,106,even,5182937,5185415,5184915,5184165,5137265,NA,5181936,5186177,1060,NA,NA,5181934,5187140,4879266,5181934,4553825,NA,5181937,1063,New experiment,NA,0,0,0,yes,1024
undefined,undefined,undefined,undefined,black,no,legacy,0,uniform,undefined,undefined,undefined,104,104,209,104,104,NA,104,104,0,0,0,104,104,0,104,0,NA,104,0,Fri 14 Jun 2019 11:51:46 AM PDT,500,1000,The main experiment item,yes,NA,ABX_v3.osexp,/home/ubuntu/Desktop/panara,no,no,mono,no,18,no,white,no,yes,768,50,53,/home/ubuntu/Desktop/panara/subject-106.csv,Jazzy James,3.1.3,2.2.3.wav,2.2.5.wav,4.2.5.wav,0,0,h,0,NA,1269,28188,1269,NA,4552761,i,2,1024,2,48000,-16,experiment,2.2.3.wav,4.2.5.wav,2.2.5.wav,106,even,5188298,5190791,5190291,5189554,5137265,NA,5187298,5191510,1060,NA,NA,5187296,5192780,4879266,5187295,4553825,NA,5187298,1063,New experiment,NA,0,0,0,yes,1024
undefined,undefined,undefined,undefined,black,no,legacy,0,uniform,undefined,undefined,undefined,105,105,211,105,105,NA,105,105,0,0,0,105,105,0,105,0,NA,105,0,Fri 14 Jun 2019 11:51:46 AM PDT,500,1000,The main experiment item,yes,NA,ABX_v3.osexp,/home/ubuntu/Desktop/panara,yes,no,mono,no,18,no,white,no,yes,768,51,53,/home/ubuntu/Desktop/panara/subject-106.csv,Jazzy James,3.1.3,4.2.5.wav,4.2.3.wav,3.2.3.wav,0,0,h,0,NA,771,28188,771,NA,4552761,i,2,1024,2,48000,-16,experiment,3.2.3.wav,4.2.5.wav,4.2.3.wav,106,even,5193963,5196445,5195945,5195194,5137265,NA,5192962,5197201,1060,NA,NA,5192960,5197972,4879266,5192960,4553825,NA,5192963,1063,New experiment,NA,0,0,0,yes,1024
undefined,undefined,undefined,undefined,black,no,legacy,0,uniform,undefined,undefined,undefined,106,106,213,106,106,NA,106,106,0,0,0,106,106,0,106,0,NA,106,0,Fri 14 Jun 2019 11:51:46 AM PDT,500,1000,The main experiment item,yes,NA,ABX_v3.osexp,/home/ubuntu/Desktop/panara,yes,no,mono,no,18,no,white,no,yes,768,52,53,/home/ubuntu/Desktop/panara/subject-106.csv,Jazzy James,3.1.3,3.2.3.wav,3.2.1.wav,1.2.1.wav,0,1,h,1,NA,563,28188,563,NA,4552761,i,2,1024,2,48000,-16,experiment,1.2.1.wav,3.2.3.wav,3.2.1.wav,106,even,5199154,5201690,5201190,5200416,5137265,NA,5198154,5202479,1060,NA,NA,5198151,5203043,4879266,5198151,4553825,NA,5198154,1063,New experiment,NA,0,0,0,yes,1024
undefined,undefined,undefined,undefined,black,no,legacy,0,uniform,undefined,undefined,undefined,107,107,215,107,107,NA,107,107,0,0,0,107,107,0,107,0,NA,107,0,Fri 14 Jun 2019 11:51:46 AM PDT,500,1000,The main experiment item,yes,NA,ABX_v3.osexp,/home/ubuntu/Desktop/panara,no,no,mono,no,18,no,white,no,yes,768,53,53,/home/ubuntu/Desktop/panara/subject-106.csv,Jazzy James,3.1.3,2.2.2.wav,2.2.4.wav,2.1.4.wav,0,0,h,0,NA,977,28188,977,NA,4552761,i,2,1024,2,48000,-16,experiment,2.2.2.wav,2.1.4.wav,2.2.4.wav,106,even,5204225,5206662,5206162,5205450,5137265,NA,5203225,5207409,1060,NA,NA,5203223,5208387,4879266,5203223,4553825,NA,5203225,1063,New experiment,NA,0,0,0,yes,1024
undefined,undefined,undefined,undefined,black,no,legacy,0,uniform,undefined,undefined,undefined,108,108,217,108,108,NA,108,108,0,0,0,108,108,0,108,0,NA,108,0,Fri 14 Jun 2019 11:51:46 AM PDT,500,1000,The main experiment item,yes,NA,ABX_v3.osexp,/home/ubuntu/Desktop/panara,no,no,mono,no,18,no,white,no,yes,768,54,53,/home/ubuntu/Desktop/panara/subject-106.csv,Jazzy James,3.1.3,2.2.2.wav,2.2.4.wav,4.2.4.wav,0,1,h,1,NA,780,28188,780,NA,4552761,i,2,1024,2,48000,-16,experiment,2.2.2.wav,4.2.4.wav,2.2.4.wav,106,even,5209558,5212059,5211559,5210822,5137265,NA,5208558,5212782,1060,NA,NA,5208556,5213562,4879266,5208556,4553825,NA,5208558,1063,New experiment,NA,0,0,0,yes,1024
undefined,undefined,undefined,undefined,black,no,legacy,0,uniform,undefined,undefined,undefined,109,109,219,109,109,NA,109,109,0,0,0,109,109,0,109,0,NA,109,0,Fri 14 Jun 2019 11:51:46 AM PDT,500,1000,The main experiment item,yes,NA,ABX_v3.osexp,/home/ubuntu/Desktop/panara,no,no,mono,no,18,no,white,no,yes,768,55,53,/home/ubuntu/Desktop/panara/subject-106.csv,Jazzy James,3.1.3,4.1.1.wav,4.1.3.wav,3.1.3.wav,0,1,h,1,NA,460,28188,460,NA,4552761,i,2,1024,2,48000,-16,experiment,4.1.1.wav,3.1.3.wav,4.1.3.wav,106,even,5214715,5217179,5216679,5215947,5137265,NA,5213715,5217949,1060,NA,NA,5213713,5218410,4879266,5213713,4553825,NA,5213715,1063,New experiment,NA,0,0,0,yes,1024
undefined,undefined,undefined,undefined,black,no,legacy,0,uniform,undefined,undefined,undefined,110,110,221,110,110,NA,110,110,0,0,0,110,110,0,110,0,NA,110,0,Fri 14 Jun 2019 11:51:46 AM PDT,500,1000,The main experiment item,yes,NA,ABX_v3.osexp,/home/ubuntu/Desktop/panara,no,no,mono,no,18,no,white,no,yes,768,56,53,/home/ubuntu/Desktop/panara/subject-106.csv,Jazzy James,3.1.3,1.1.3.wav,3.1.3.wav,3.1.5.wav,0,0,h,0,NA,657,28188,657,NA,4552761,i,2,1024,2,48000,-16,experiment,1.1.3.wav,3.1.5.wav,3.1.3.wav,106,even,5219576,5222089,5221589,5220851,5137265,NA,5218576,5222872,1060,NA,NA,5218573,5223530,4879266,5218573,4553825,NA,5218576,1063,New experiment,NA,0,0,0,yes,1024
undefined,undefined,undefined,undefined,black,no,legacy,0,uniform,undefined,undefined,undefined,111,111,223,111,111,NA,111,111,0,0,0,111,111,0,111,0,NA,111,0,Fri 14 Jun 2019 11:51:46 AM PDT,500,1000,The main experiment item,yes,NA,ABX_v3.osexp,/home/ubuntu/Desktop/panara,yes,no,mono,no,18,no,white,no,yes,768,57,53,/home/ubuntu/Desktop/panara/subject-106.csv,Jazzy James,3.1.3,3.2.3.wav,3.1.3.wav,3.1.1.wav,0,0,h,0,NA,741,28188,741,NA,4552761,i,2,1024,2,48000,-16,experiment,3.1.1.wav,3.2.3.wav,3.1.3.wav,106,even,5224693,5227187,5226687,5225933,5137265,NA,5223693,5227924,1060,NA,NA,5223690,5228665,4879266,5223690,4553825,NA,5223693,1063,New experiment,NA,0,0,0,yes,1024
undefined,undefined,undefined,undefined,black,no,legacy,0,uniform,undefined,undefined,undefined,112,112,225,112,112,NA,112,112,0,0,0,112,112,0,112,0,NA,112,0,Fri 14 Jun 2019 11:51:46 AM PDT,500,1000,The main experiment item,yes,NA,ABX_v3.osexp,/home/ubuntu/Desktop/panara,yes,no,mono,no,18,no,white,no,yes,768,58,53,/home/ubuntu/Desktop/panara/subject-106.csv,Jazzy James,3.1.3,2.1.5.wav,2.1.3.wav,1.1.3.wav,0,0,h,0,NA,643,28188,643,NA,4552761,i,2,1024,2,48000,-16,experiment,1.1.3.wav,2.1.5.wav,2.1.3.wav,106,even,5229828,5232324,5231824,5231087,5137265,NA,5228828,5233149,1060,NA,NA,5228825,5233793,4879266,5228825,4553825,NA,5228828,1063,New experiment,NA,0,0,0,yes,1024
undefined,undefined,undefined,undefined,black,no,legacy,0,uniform,undefined,undefined,undefined,113,113,227,113,113,NA,113,113,0,0,0,113,113,0,113,0,NA,113,0,Fri 14 Jun 2019 11:51:46 AM PDT,500,1000,The main experiment item,yes,NA,ABX_v3.osexp,/home/ubuntu/Desktop/panara,no,no,mono,no,18,no,white,no,yes,768,59,53,/home/ubuntu/Desktop/panara/subject-106.csv,Jazzy James,3.1.3,2.1.1.wav,2.1.3.wav,4.1.3.wav,0,1,h,1,NA,852,28188,852,NA,4552761,i,2,1024,2,48000,-16,experiment,2.1.1.wav,4.1.3.wav,2.1.3.wav,106,even,5234979,5237509,5237009,5236236,5137265,NA,5233978,5238244,1060,NA,NA,5233976,5239097,4879266,5233976,4553825,NA,5233979,1063,New experiment,NA,0,0,0,yes,1024
undefined,undefined,undefined,undefined,black,no,legacy,0,uniform,undefined,undefined,undefined,114,114,229,114,114,NA,114,114,0,0,0,114,114,0,114,0,NA,114,0,Fri 14 Jun 2019 11:51:46 AM PDT,500,1000,The main experiment item,yes,NA,ABX_v3.osexp,/home/ubuntu/Desktop/panara,yes,no,mono,no,18,no,white,no,yes,768,60,53,/home/ubuntu/Desktop/panara/subject-106.csv,Jazzy James,3.1.3,4.2.4.wav,3.2.4.wav,3.2.2.wav,0,0,h,0,NA,1259,28188,1259,NA,4552761,i,2,1024,2,48000,-16,experiment,3.2.2.wav,4.2.4.wav,3.2.4.wav,106,even,5240265,5242738,5242238,5241502,5137265,NA,5239265,5243516,1060,NA,NA,5239262,5244776,4879266,5239262,4553825,NA,5239265,1063,New experiment,NA,0,0,0,yes,1024
undefined,undefined,undefined,undefined,black,no,legacy,0,uniform,undefined,undefined,undefined,115,115,231,115,115,NA,115,115,0,0,0,115,115,0,115,0,NA,115,0,Fri 14 Jun 2019 11:51:46 AM PDT,500,1000,The main experiment item,yes,NA,ABX_v3.osexp,/home/ubuntu/Desktop/panara,yes,no,mono,no,18,no,white,no,yes,768,61,53,/home/ubuntu/Desktop/panara/subject-106.csv,Jazzy James,3.1.3,4.2.3.wav,4.2.1.wav,3.2.1.wav,0,1,h,1,NA,445,28188,445,NA,4552761,i,2,1024,2,48000,-16,experiment,3.2.1.wav,4.2.3.wav,4.2.1.wav,106,even,5245941,5248393,5247893,5247176,5137265,NA,5244940,5249130,1060,NA,NA,5244938,5249576,4879266,5244938,4553825,NA,5244941,1063,New experiment,NA,0,0,0,yes,1024
undefined,undefined,undefined,undefined,black,no,legacy,0,uniform,undefined,undefined,undefined,116,116,233,116,116,NA,116,116,0,0,0,116,116,0,116,0,NA,116,0,Fri 14 Jun 2019 11:51:46 AM PDT,500,1000,The main experiment item,yes,NA,ABX_v3.osexp,/home/ubuntu/Desktop/panara,no,no,mono,no,18,no,white,no,yes,768,62,53,/home/ubuntu/Desktop/panara/subject-106.csv,Jazzy James,3.1.3,1.1.1.wav,1.1.3.wav,2.1.3.wav,0,1,h,1,NA,1066,28188,1066,NA,4552761,i,2,1024,2,48000,-16,experiment,1.1.1.wav,2.1.3.wav,1.1.3.wav,106,even,5250739,5253321,5252821,5252035,5137265,NA,5249739,5254053,1060,NA,NA,5249737,5255120,4879266,5249737,4553825,NA,5249739,1063,New experiment,NA,0,0,0,yes,1024
undefined,undefined,undefined,undefined,black,no,legacy,0,uniform,undefined,undefined,undefined,117,117,235,117,117,NA,117,117,0,0,0,117,117,0,117,0,NA,117,0,Fri 14 Jun 2019 11:51:46 AM PDT,500,1000,The main experiment item,yes,NA,ABX_v3.osexp,/home/ubuntu/Desktop/panara,no,no,mono,no,18,no,white,no,yes,768,63,53,/home/ubuntu/Desktop/panara/subject-106.csv,Jazzy James,3.1.3,3.2.1.wav,3.1.1.wav,3.1.3.wav,0,0,h,0,NA,723,28188,723,NA,4552761,i,2,1024,2,48000,-16,experiment,3.2.1.wav,3.1.3.wav,3.1.1.wav,106,even,5256284,5258779,5258279,5257534,5137265,NA,5255284,5259515,1060,NA,NA,5255282,5260239,4879266,5255282,4553825,NA,5255284,1063,New experiment,NA,0,0,0,yes,1024
undefined,undefined,undefined,undefined,black,no,legacy,0,uniform,undefined,undefined,undefined,118,118,237,118,118,NA,118,118,0,0,0,118,118,0,118,0,NA,118,0,Fri 14 Jun 2019 11:51:46 AM PDT,500,1000,The main experiment item,yes,NA,ABX_v3.osexp,/home/ubuntu/Desktop/panara,no,no,mono,no,18,no,white,no,yes,768,64,53,/home/ubuntu/Desktop/panara/subject-106.csv,Jazzy James,3.1.3,4.1.2.wav,4.1.4.wav,2.1.4.wav,0,1,h,1,NA,844,28188,844,NA,4552761,i,2,1024,2,48000,-16,experiment,4.1.2.wav,2.1.4.wav,4.1.4.wav,106,even,5261425,5263895,5263395,5262679,5137265,NA,5260425,5264634,1060,NA,NA,5260422,5265479,4879266,5260422,4553825,NA,5260425,1063,New experiment,NA,0,0,0,yes,1024
undefined,undefined,undefined,undefined,black,no,legacy,0,uniform,undefined,undefined,undefined,119,119,239,119,119,NA,119,119,0,0,0,119,119,0,119,0,NA,119,0,Fri 14 Jun 2019 11:51:46 AM PDT,500,1000,The main experiment item,yes,NA,ABX_v3.osexp,/home/ubuntu/Desktop/panara,no,no,mono,no,18,no,white,no,yes,768,65,53,/home/ubuntu/Desktop/panara/subject-106.csv,Jazzy James,3.1.3,3.2.2.wav,4.2.2.wav,4.2.4.wav,0,0,h,0,NA,1864,28188,1864,NA,4552761,i,2,1024,2,48000,-16,experiment,3.2.2.wav,4.2.4.wav,4.2.2.wav,106,even,5266637,5269142,5268642,5267913,5137265,NA,5265637,5269910,1060,NA,NA,5265634,5271774,4879266,5265634,4553825,NA,5265637,1063,New experiment,NA,0,0,0,yes,1024
undefined,undefined,undefined,undefined,black,no,legacy,0,uniform,undefined,undefined,undefined,120,120,241,120,120,NA,120,120,0,0,0,120,120,0,120,0,NA,120,0,Fri 14 Jun 2019 11:51:46 AM PDT,500,1000,The main experiment item,yes,NA,ABX_v3.osexp,/home/ubuntu/Desktop/panara,no,no,mono,no,18,no,white,no,yes,768,66,53,/home/ubuntu/Desktop/panara/subject-106.csv,Jazzy James,3.1.3,2.2.1.wav,1.2.1.wav,1.2.3.wav,0,0,h,0,NA,754,28188,754,NA,4552761,i,2,1024,2,48000,-16,experiment,2.2.1.wav,1.2.3.wav,1.2.1.wav,106,even,5272943,5275463,5274963,5274177,5137265,NA,5271942,5276236,1060,NA,NA,5271939,5276991,4879266,5271939,4553825,NA,5271943,1063,New experiment,NA,0,0,0,yes,1024
undefined,undefined,undefined,undefined,black,no,legacy,0,uniform,undefined,undefined,undefined,121,121,243,121,121,NA,121,121,0,0,0,121,121,0,121,0,NA,121,0,Fri 14 Jun 2019 11:51:46 AM PDT,500,1000,The main experiment item,yes,NA,ABX_v3.osexp,/home/ubuntu/Desktop/panara,no,no,mono,no,18,no,white,no,yes,768,67,53,/home/ubuntu/Desktop/panara/subject-106.csv,Jazzy James,3.1.3,3.2.2.wav,3.2.4.wav,3.1.4.wav,0,1,h,1,NA,734,28188,734,NA,4552761,i,2,1024,2,48000,-16,experiment,3.2.2.wav,3.1.4.wav,3.2.4.wav,106,even,5278170,5280701,5280201,5279451,5137265,NA,5277170,5281471,1060,NA,NA,5277167,5282206,4879266,5277167,4553825,NA,5277170,1063,New experiment,NA,0,0,0,yes,1024
undefined,undefined,undefined,undefined,black,no,legacy,0,uniform,undefined,undefined,undefined,122,122,245,122,122,NA,122,122,0,0,0,122,122,0,122,0,NA,122,0,Fri 14 Jun 2019 11:51:46 AM PDT,500,1000,The main experiment item,yes,NA,ABX_v3.osexp,/home/ubuntu/Desktop/panara,yes,no,mono,no,18,no,white,no,yes,768,68,53,/home/ubuntu/Desktop/panara/subject-106.csv,Jazzy James,3.1.3,3.1.5.wav,4.1.5.wav,4.1.3.wav,0,0,h,0,NA,887,28188,887,NA,4552761,i,2,1024,2,48000,-16,experiment,4.1.3.wav,3.1.5.wav,4.1.5.wav,106,even,5283388,5285872,5285372,5284659,5137265,NA,5282387,5286590,1060,NA,NA,5282385,5287477,4879266,5282385,4553825,NA,5282388,1063,New experiment,NA,0,0,0,yes,1024
undefined,undefined,undefined,undefined,black,no,legacy,0,uniform,undefined,undefined,undefined,123,123,247,123,123,NA,123,123,0,0,0,123,123,0,123,0,NA,123,0,Fri 14 Jun 2019 11:51:46 AM PDT,500,1000,The main experiment item,yes,NA,ABX_v3.osexp,/home/ubuntu/Desktop/panara,yes,no,mono,no,18,no,white,no,yes,768,69,53,/home/ubuntu/Desktop/panara/subject-106.csv,Jazzy James,3.1.3,3.2.4.wav,4.2.4.wav,4.2.2.wav,0,0,h,0,NA,788,28188,788,NA,4552761,i,2,1024,2,48000,-16,experiment,4.2.2.wav,3.2.4.wav,4.2.4.wav,106,even,5288661,5291174,5290674,5289923,5137265,NA,5287660,5291896,1060,NA,NA,5287658,5292685,4879266,5287658,4553825,NA,5287661,1063,New experiment,NA,0,0,0,yes,1024
undefined,undefined,undefined,undefined,black,no,legacy,0,uniform,undefined,undefined,undefined,124,124,249,124,124,NA,124,124,0,0,0,124,124,0,124,0,NA,124,0,Fri 14 Jun 2019 11:51:46 AM PDT,500,1000,The main experiment item,yes,NA,ABX_v3.osexp,/home/ubuntu/Desktop/panara,yes,no,mono,no,18,no,white,no,yes,768,70,53,/home/ubuntu/Desktop/panara/subject-106.csv,Jazzy James,3.1.3,3.1.5.wav,3.2.5.wav,3.2.3.wav,0,1,h,1,NA,914,28188,914,NA,4552761,i,2,1024,2,48000,-16,experiment,3.2.3.wav,3.1.5.wav,3.2.5.wav,106,even,5293857,5296445,5295944,5295151,5137265,NA,5292857,5297210,1060,NA,NA,5292854,5298125,4879266,5292854,4553825,NA,5292857,1063,New experiment,NA,0,0,0,yes,1024
undefined,undefined,undefined,undefined,black,no,legacy,0,uniform,undefined,undefined,undefined,125,125,251,125,125,NA,125,125,0,0,0,125,125,0,125,0,NA,125,0,Fri 14 Jun 2019 11:51:46 AM PDT,500,1000,The main experiment item,yes,NA,ABX_v3.osexp,/home/ubuntu/Desktop/panara,yes,no,mono,no,18,no,white,no,yes,768,71,53,/home/ubuntu/Desktop/panara/subject-106.csv,Jazzy James,3.1.3,2.2.5.wav,4.2.5.wav,4.2.3.wav,0,0,h,0,NA,458,28188,458,NA,4552761,i,2,1024,2,48000,-16,experiment,4.2.3.wav,2.2.5.wav,4.2.5.wav,106,even,5299289,5301712,5301212,5300500,5137265,NA,5298288,5302459,1060,NA,NA,5298286,5302917,4879266,5298286,4553825,NA,5298289,1063,New experiment,NA,0,0,0,yes,1024
undefined,undefined,undefined,undefined,black,no,legacy,0,uniform,undefined,undefined,undefined,126,126,253,126,126,NA,126,126,0,0,0,126,126,0,126,0,NA,126,0,Fri 14 Jun 2019 11:51:46 AM PDT,500,1000,The main experiment item,yes,NA,ABX_v3.osexp,/home/ubuntu/Desktop/panara,yes,no,mono,no,18,no,white,no,yes,768,72,53,/home/ubuntu/Desktop/panara/subject-106.csv,Jazzy James,3.1.3,3.2.5.wav,1.2.5.wav,1.2.3.wav,0,0,h,0,NA,599,28188,599,NA,4552761,i,2,1024,2,48000,-16,experiment,1.2.3.wav,3.2.5.wav,1.2.5.wav,106,even,5304047,5306602,5306102,5305323,5137265,NA,5303047,5307389,1060,NA,NA,5303045,5307989,4879266,5303045,4553825,NA,5303047,1063,New experiment,NA,0,0,0,yes,1024
undefined,undefined,undefined,undefined,black,no,legacy,0,uniform,undefined,undefined,undefined,127,127,255,127,127,NA,127,127,0,0,0,127,127,0,127,0,NA,127,0,Fri 14 Jun 2019 11:51:46 AM PDT,500,1000,The main experiment item,yes,NA,ABX_v3.osexp,/home/ubuntu/Desktop/panara,yes,no,mono,no,18,no,white,no,yes,768,73,53,/home/ubuntu/Desktop/panara/subject-106.csv,Jazzy James,3.1.3,2.2.4.wav,2.2.2.wav,2.1.2.wav,0,0,h,0,NA,792,28188,792,NA,4552761,i,2,1024,2,48000,-16,experiment,2.1.2.wav,2.2.4.wav,2.2.2.wav,106,even,5309175,5311622,5311122,5310383,5137265,NA,5308174,5312371,1060,NA,NA,5308171,5313164,4879266,5308171,4553825,NA,5308175,1063,New experiment,NA,0,0,0,yes,1024
undefined,undefined,undefined,undefined,black,no,legacy,0,uniform,undefined,undefined,undefined,128,128,257,128,128,NA,128,128,0,0,0,128,128,0,128,0,NA,128,0,Fri 14 Jun 2019 11:51:46 AM PDT,500,1000,The main experiment item,yes,NA,ABX_v3.osexp,/home/ubuntu/Desktop/panara,no,no,mono,no,18,no,white,no,yes,768,74,53,/home/ubuntu/Desktop/panara/subject-106.csv,Jazzy James,3.1.3,3.2.3.wav,3.1.3.wav,3.1.5.wav,0,0,h,0,NA,1007,28188,1007,NA,4552761,i,2,1024,2,48000,-16,experiment,3.2.3.wav,3.1.5.wav,3.1.3.wav,106,even,5314342,5316868,5316367,5315612,5137265,NA,5313342,5317644,1060,NA,NA,5313339,5318651,4879266,5313339,4553825,NA,5313342,1063,New experiment,NA,0,0,0,yes,1024
undefined,undefined,undefined,undefined,black,no,legacy,0,uniform,undefined,undefined,undefined,129,129,259,129,129,NA,129,129,0,0,0,129,129,0,129,0,NA,129,0,Fri 14 Jun 2019 11:51:46 AM PDT,500,1000,The main experiment item,yes,NA,ABX_v3.osexp,/home/ubuntu/Desktop/panara,yes,no,mono,no,18,no,white,no,yes,768,75,53,/home/ubuntu/Desktop/panara/subject-106.csv,Jazzy James,3.1.3,4.2.5.wav,3.2.5.wav,3.2.3.wav,0,0,h,0,NA,1207,28188,1207,NA,4552761,i,2,1024,2,48000,-16,experiment,3.2.3.wav,4.2.5.wav,3.2.5.wav,106,even,5319843,5322383,5321883,5321095,5137265,NA,5318843,5323147,1060,NA,NA,5318841,5324355,4879266,5318841,4553825,NA,5318843,1063,New experiment,NA,0,0,0,yes,1024
undefined,undefined,undefined,undefined,black,no,legacy,0,uniform,undefined,undefined,undefined,130,130,261,130,130,NA,130,130,0,0,0,130,130,0,130,0,NA,130,0,Fri 14 Jun 2019 11:51:46 AM PDT,500,1000,The main experiment item,yes,NA,ABX_v3.osexp,/home/ubuntu/Desktop/panara,yes,no,mono,no,18,no,white,no,yes,768,76,53,/home/ubuntu/Desktop/panara/subject-106.csv,Jazzy James,3.1.3,2.2.3.wav,4.2.3.wav,4.2.1.wav,0,0,h,0,NA,678,28188,678,NA,4552761,i,2,1024,2,48000,-16,experiment,4.2.1.wav,2.2.3.wav,4.2.3.wav,106,even,5325542,5327997,5327497,5326764,5137265,NA,5324542,5328724,1060,NA,NA,5324540,5329403,4879266,5324540,4553825,NA,5324542,1063,New experiment,NA,0,0,0,yes,1024
undefined,undefined,undefined,undefined,black,no,legacy,0,uniform,undefined,undefined,undefined,131,131,263,131,131,NA,131,131,0,0,0,131,131,0,131,0,NA,131,0,Fri 14 Jun 2019 11:51:46 AM PDT,500,1000,The main experiment item,yes,NA,ABX_v3.osexp,/home/ubuntu/Desktop/panara,no,no,mono,no,18,no,white,no,yes,768,77,53,/home/ubuntu/Desktop/panara/subject-106.csv,Jazzy James,3.1.3,2.2.3.wav,2.2.5.wav,1.2.5.wav,0,0,h,0,NA,823,28188,823,NA,4552761,i,2,1024,2,48000,-16,experiment,2.2.3.wav,1.2.5.wav,2.2.5.wav,106,even,5330570,5333011,5332511,5331799,5137265,NA,5329569,5333770,1060,NA,NA,5329567,5334594,4879266,5329567,4553825,NA,5329570,1063,New experiment,NA,0,0,0,yes,1024
undefined,undefined,undefined,undefined,black,no,legacy,0,uniform,undefined,undefined,undefined,132,132,265,132,132,NA,132,132,0,0,0,132,132,0,132,0,NA,132,0,Fri 14 Jun 2019 11:51:46 AM PDT,500,1000,The main experiment item,yes,NA,ABX_v3.osexp,/home/ubuntu/Desktop/panara,no,no,mono,no,18,no,white,no,yes,768,78,53,/home/ubuntu/Desktop/panara/subject-106.csv,Jazzy James,3.1.3,3.1.2.wav,3.1.4.wav,4.1.4.wav,0,1,h,1,NA,811,28188,811,NA,4552761,i,2,1024,2,48000,-16,experiment,3.1.2.wav,4.1.4.wav,3.1.4.wav,106,even,5335778,5338305,5337805,5337043,5137265,NA,5334777,5339023,1060,NA,NA,5334775,5339835,4879266,5334775,4553825,NA,5334778,1063,New experiment,NA,0,0,0,yes,1024
undefined,undefined,undefined,undefined,black,no,legacy,0,uniform,undefined,undefined,undefined,133,133,267,133,133,NA,133,133,0,0,0,133,133,0,133,0,NA,133,0,Fri 14 Jun 2019 11:51:46 AM PDT,500,1000,The main experiment item,yes,NA,ABX_v3.osexp,/home/ubuntu/Desktop/panara,yes,no,mono,no,18,no,white,no,yes,768,79,53,/home/ubuntu/Desktop/panara/subject-106.csv,Jazzy James,3.1.3,3.2.5.wav,3.2.3.wav,3.1.3.wav,0,0,h,0,NA,1147,28188,1147,NA,4552761,i,2,1024,2,48000,-16,experiment,3.1.3.wav,3.2.5.wav,3.2.3.wav,106,even,5341005,5343552,5343052,5342308,5137265,NA,5340004,5344310,1060,NA,NA,5340002,5345458,4879266,5340002,4553825,NA,5340005,1063,New experiment,NA,0,0,0,yes,1024
undefined,undefined,undefined,undefined,black,no,legacy,0,uniform,undefined,undefined,undefined,134,134,269,134,134,NA,134,134,0,0,0,134,134,0,134,0,NA,134,0,Fri 14 Jun 2019 11:51:46 AM PDT,500,1000,The main experiment item,yes,NA,ABX_v3.osexp,/home/ubuntu/Desktop/panara,yes,no,mono,no,18,no,white,no,yes,768,80,53,/home/ubuntu/Desktop/panara/subject-106.csv,Jazzy James,3.1.3,1.1.3.wav,1.1.1.wav,1.2.1.wav,0,0,h,0,NA,711,28188,711,NA,4552761,i,2,1024,2,48000,-16,experiment,1.2.1.wav,1.1.3.wav,1.1.1.wav,106,even,5346645,5349244,5348744,5347959,5137265,NA,5345645,5350009,1060,NA,NA,5345642,5350721,4879266,5345642,4553825,NA,5345645,1063,New experiment,NA,0,0,0,yes,1024
undefined,undefined,undefined,undefined,black,no,legacy,0,uniform,undefined,undefined,undefined,135,135,271,135,135,NA,135,135,0,0,0,135,135,0,135,0,NA,135,0,Fri 14 Jun 2019 11:51:46 AM PDT,500,1000,The main experiment item,yes,NA,ABX_v3.osexp,/home/ubuntu/Desktop/panara,no,no,mono,no,18,no,white,no,yes,768,81,53,/home/ubuntu/Desktop/panara/subject-106.csv,Jazzy James,3.1.3,2.2.1.wav,2.2.3.wav,1.2.3.wav,0,1,h,1,NA,1302,28188,1302,NA,4552761,i,2,1024,2,48000,-16,experiment,2.2.1.wav,1.2.3.wav,2.2.3.wav,106,even,5351914,5354386,5353886,5353153,5137265,NA,5350913,5355154,1060,NA,NA,5350911,5356457,4879266,5350911,4553825,NA,5350914,1063,New experiment,NA,0,0,0,yes,1024
undefined,undefined,undefined,undefined,black,no,legacy,0,uniform,undefined,undefined,undefined,136,136,273,136,136,NA,136,136,0,0,0,136,136,0,136,0,NA,136,0,Fri 14 Jun 2019 11:51:46 AM PDT,500,1000,The main experiment item,yes,NA,ABX_v3.osexp,/home/ubuntu/Desktop/panara,yes,no,mono,no,18,no,white,no,yes,768,82,53,/home/ubuntu/Desktop/panara/subject-106.csv,Jazzy James,3.1.3,2.2.3.wav,1.2.3.wav,1.2.1.wav,0,0,h,0,NA,696,28188,696,NA,4552761,i,2,1024,2,48000,-16,experiment,1.2.1.wav,2.2.3.wav,1.2.3.wav,106,even,5357647,5360188,5359688,5358912,5137265,NA,5356647,5360976,1060,NA,NA,5356644,5361672,4879266,5356644,4553825,NA,5356647,1063,New experiment,NA,0,0,0,yes,1024
undefined,undefined,undefined,undefined,black,no,legacy,0,uniform,undefined,undefined,undefined,137,137,275,137,137,NA,137,137,0,0,0,137,137,0,137,0,NA,137,0,Fri 14 Jun 2019 11:51:46 AM PDT,500,1000,The main experiment item,yes,NA,ABX_v3.osexp,/home/ubuntu/Desktop/panara,no,no,mono,no,18,no,white,no,yes,768,83,53,/home/ubuntu/Desktop/panara/subject-106.csv,Jazzy James,3.1.3,1.2.1.wav,1.2.3.wav,1.1.3.wav,0,0,h,0,NA,681,28188,681,NA,4552761,i,2,1024,2,48000,-16,experiment,1.2.1.wav,1.1.3.wav,1.2.3.wav,106,even,5362840,5365372,5364872,5364113,5137265,NA,5361840,5366175,1060,NA,NA,5361838,5366857,4879266,5361838,4553825,NA,5361840,1063,New experiment,NA,0,0,0,yes,1024
undefined,undefined,undefined,undefined,black,no,legacy,0,uniform,undefined,undefined,undefined,138,138,277,138,138,NA,138,138,0,0,0,138,138,0,138,0,NA,138,0,Fri 14 Jun 2019 11:51:46 AM PDT,500,1000,The main experiment item,yes,NA,ABX_v3.osexp,/home/ubuntu/Desktop/panara,yes,no,mono,no,18,no,white,no,yes,768,84,53,/home/ubuntu/Desktop/panara/subject-106.csv,Jazzy James,3.1.3,2.1.3.wav,2.1.1.wav,2.2.1.wav,0,1,h,1,NA,2148,28188,2148,NA,4552761,i,2,1024,2,48000,-16,experiment,2.2.1.wav,2.1.3.wav,2.1.1.wav,106,even,5368028,5370511,5370011,5369273,5137265,NA,5367028,5371235,1060,NA,NA,5367026,5373384,4879266,5367026,4553825,NA,5367028,1063,New experiment,NA,0,0,0,yes,1024
undefined,undefined,undefined,undefined,black,no,legacy,0,uniform,undefined,undefined,undefined,139,139,279,139,139,NA,139,139,0,0,0,139,139,0,139,0,NA,139,0,Fri 14 Jun 2019 11:51:46 AM PDT,500,1000,The main experiment item,yes,NA,ABX_v3.osexp,/home/ubuntu/Desktop/panara,no,no,mono,no,18,no,white,no,yes,768,85,53,/home/ubuntu/Desktop/panara/subject-106.csv,Jazzy James,3.1.3,4.2.2.wav,4.1.2.wav,4.1.4.wav,0,1,h,1,NA,602,28188,602,NA,4552761,i,2,1024,2,48000,-16,experiment,4.2.2.wav,4.1.4.wav,4.1.2.wav,106,even,5374548,5377023,5376523,5375799,5137265,NA,5373548,5377741,1060,NA,NA,5373545,5378343,4879266,5373545,4553825,NA,5373548,1063,New experiment,NA,0,0,0,yes,1024
undefined,undefined,undefined,undefined,black,no,legacy,0,uniform,undefined,undefined,undefined,140,140,281,140,140,NA,140,140,0,0,0,140,140,0,140,0,NA,140,0,Fri 14 Jun 2019 11:51:46 AM PDT,500,1000,The main experiment item,yes,NA,ABX_v3.osexp,/home/ubuntu/Desktop/panara,yes,no,mono,no,18,no,white,no,yes,768,86,53,/home/ubuntu/Desktop/panara/subject-106.csv,Jazzy James,3.1.3,4.1.5.wav,3.1.5.wav,3.1.3.wav,0,0,h,0,NA,706,28188,706,NA,4552761,i,2,1024,2,48000,-16,experiment,3.1.3.wav,4.1.5.wav,3.1.5.wav,106,even,5379552,5382048,5381548,5380774,5137265,NA,5378552,5382788,1060,NA,NA,5378550,5383495,4879266,5378550,4553825,NA,5378552,1063,New experiment,NA,0,0,0,yes,1024
undefined,undefined,undefined,undefined,black,no,legacy,0,uniform,undefined,undefined,undefined,141,141,283,141,141,NA,141,141,0,0,0,141,141,0,141,0,NA,141,0,Fri 14 Jun 2019 11:51:46 AM PDT,500,1000,The main experiment item,yes,NA,ABX_v3.osexp,/home/ubuntu/Desktop/panara,yes,no,mono,no,18,no,white,no,yes,768,87,53,/home/ubuntu/Desktop/panara/subject-106.csv,Jazzy James,3.1.3,3.2.5.wav,4.2.5.wav,4.2.3.wav,0,0,h,0,NA,654,28188,654,NA,4552761,i,2,1024,2,48000,-16,experiment,4.2.3.wav,3.2.5.wav,4.2.5.wav,106,even,5384677,5387172,5386672,5385963,5137265,NA,5383677,5387960,1060,NA,NA,5383675,5388615,4879266,5383675,4553825,NA,5383677,1063,New experiment,NA,0,0,0,yes,1024
undefined,undefined,undefined,undefined,black,no,legacy,0,uniform,undefined,undefined,undefined,142,142,285,142,142,NA,142,142,0,0,0,142,142,0,142,0,NA,142,0,Fri 14 Jun 2019 11:51:46 AM PDT,500,1000,The main experiment item,yes,NA,ABX_v3.osexp,/home/ubuntu/Desktop/panara,no,no,mono,no,18,no,white,no,yes,768,88,53,/home/ubuntu/Desktop/panara/subject-106.csv,Jazzy James,3.1.3,1.1.3.wav,1.1.5.wav,3.1.5.wav,0,1,h,1,NA,1276,28188,1276,NA,4552761,i,2,1024,2,48000,-16,experiment,1.1.3.wav,3.1.5.wav,1.1.5.wav,106,even,5389808,5392403,5391903,5391119,5137265,NA,5388808,5393177,1060,NA,NA,5388806,5394454,4879266,5388806,4553825,NA,5388808,1063,New experiment,NA,0,0,0,yes,1024
undefined,undefined,undefined,undefined,black,no,legacy,0,uniform,undefined,undefined,undefined,143,143,287,143,143,NA,143,143,0,0,0,143,143,0,143,0,NA,143,0,Fri 14 Jun 2019 11:51:46 AM PDT,500,1000,The main experiment item,yes,NA,ABX_v3.osexp,/home/ubuntu/Desktop/panara,no,no,mono,no,18,no,white,no,yes,768,89,53,/home/ubuntu/Desktop/panara/subject-106.csv,Jazzy James,3.1.3,4.1.1.wav,4.1.3.wav,4.2.3.wav,0,0,h,0,NA,782,28188,782,NA,4552761,i,2,1024,2,48000,-16,experiment,4.1.1.wav,4.2.3.wav,4.1.3.wav,106,even,5395621,5398099,5397599,5396874,5137265,NA,5394620,5398855,1060,NA,NA,5394618,5399638,4879266,5394618,4553825,NA,5394620,1063,New experiment,NA,0,0,0,yes,1024
undefined,undefined,undefined,undefined,black,no,legacy,0,uniform,undefined,undefined,undefined,144,144,289,144,144,NA,144,144,0,0,0,144,144,0,144,0,NA,144,0,Fri 14 Jun 2019 11:51:46 AM PDT,500,1000,The main experiment item,yes,NA,ABX_v3.osexp,/home/ubuntu/Desktop/panara,no,no,mono,no,18,no,white,no,yes,768,90,53,/home/ubuntu/Desktop/panara/subject-106.csv,Jazzy James,3.1.3,1.1.1.wav,1.2.1.wav,1.2.3.wav,0,0,h,0,NA,1545,28188,1545,NA,4552761,i,2,1024,2,48000,-16,experiment,1.1.1.wav,1.2.3.wav,1.2.1.wav,106,even,5400799,5403389,5402889,5402103,5137265,NA,5399798,5404172,1060,NA,NA,5399795,5405718,4879266,5399795,4553825,NA,5399799,1063,New experiment,NA,0,0,0,yes,1024
undefined,undefined,undefined,undefined,black,no,legacy,0,uniform,undefined,undefined,undefined,145,145,291,145,145,NA,145,145,0,0,0,145,145,0,145,0,NA,145,0,Fri 14 Jun 2019 11:51:46 AM PDT,500,1000,The main experiment item,yes,NA,ABX_v3.osexp,/home/ubuntu/Desktop/panara,no,no,mono,no,18,no,white,no,yes,768,91,53,/home/ubuntu/Desktop/panara/subject-106.csv,Jazzy James,3.1.3,2.1.2.wav,2.1.4.wav,2.2.4.wav,0,0,h,0,NA,1243,28188,1243,NA,4552761,i,2,1024,2,48000,-16,experiment,2.1.2.wav,2.2.4.wav,2.1.4.wav,106,even,5406892,5409397,5408897,5408145,5137265,NA,5405892,5410145,1060,NA,NA,5405889,5411389,4879266,5405889,4553825,NA,5405892,1063,New experiment,NA,0,0,0,yes,1024
undefined,undefined,undefined,undefined,black,no,legacy,0,uniform,undefined,undefined,undefined,146,146,293,146,146,NA,146,146,0,0,0,146,146,0,146,0,NA,146,0,Fri 14 Jun 2019 11:51:46 AM PDT,500,1000,The main experiment item,yes,NA,ABX_v3.osexp,/home/ubuntu/Desktop/panara,yes,no,mono,no,18,no,white,no,yes,768,92,53,/home/ubuntu/Desktop/panara/subject-106.csv,Jazzy James,3.1.3,2.2.3.wav,2.1.3.wav,2.1.1.wav,0,1,h,1,NA,1274,28188,1274,NA,4552761,i,2,1024,2,48000,-16,experiment,2.1.1.wav,2.2.3.wav,2.1.3.wav,106,even,5412573,5415053,5414553,5413833,5137265,NA,5411573,5415802,1060,NA,NA,5411570,5417077,4879266,5411570,4553825,NA,5411573,1063,New experiment,NA,0,0,0,yes,1024
undefined,undefined,undefined,undefined,black,no,legacy,0,uniform,undefined,undefined,undefined,147,147,295,147,147,NA,147,147,0,0,0,147,147,0,147,0,NA,147,0,Fri 14 Jun 2019 11:51:46 AM PDT,500,1000,The main experiment item,yes,NA,ABX_v3.osexp,/home/ubuntu/Desktop/panara,yes,no,mono,no,18,no,white,no,yes,768,93,53,/home/ubuntu/Desktop/panara/subject-106.csv,Jazzy James,3.1.3,4.2.3.wav,2.2.3.wav,2.2.1.wav,0,0,h,0,NA,1354,28188,1354,NA,4552761,i,2,1024,2,48000,-16,experiment,2.2.1.wav,4.2.3.wav,2.2.3.wav,106,even,5418250,5420723,5420223,5419496,5137265,NA,5417249,5421451,1060,NA,NA,5417247,5422805,4879266,5417247,4553825,NA,5417250,1063,New experiment,NA,0,0,0,yes,1024
