"acc","accuracy","average_response_time","avg_rt","background","bidi","canvas_backend","compensation","coordinates","correct","correct_display_selecting","correct_welcome","count_A","count_B","count_ISI","count_X","count_break","count_determine_break","count_display_listening","count_display_selecting","count_experiment","count_finished","count_getting_started","count_new_inline_script","count_new_logger","count_new_loop","count_new_sequence","count_plain_block","count_setup_breaks","count_wait_nextitem","count_welcome","datetime","delay_ISI","delay_wait_nextitem","description","disable_garbage_collection","empty_column","experiment_file","experiment_path","flip_order","font_bold","font_family","font_italic","font_size","font_underline","foreground","form_clicks","fullscreen","height","live_row","live_row_plain_block","logfile","opensesame_codename","opensesame_version","play1","play2","play3","repeat_cycle","response","response_break","response_display_selecting","response_finished","response_time","response_time_break","response_time_display_selecting","response_time_finished","response_time_welcome","response_welcome","round_decimals","sound_buf_size","sound_channels","sound_freq","sound_sample_size","start","stimA","stimB","stimX","subject_nr","subject_parity","time_A","time_B","time_ISI","time_X","time_break","time_determine_break","time_display_listening","time_display_selecting","time_experiment","time_finished","time_getting_started","time_new_inline_script","time_new_logger","time_new_loop","time_new_sequence","time_plain_block","time_setup_breaks","time_wait_nextitem","time_welcome","title","to_break","total_correct","total_response_time","total_responses","uniform_coordinates","width"
"undefined","undefined","undefined","undefined","black","no","legacy","0","uniform","undefined","undefined","undefined","0","0","1","0","0","NA","0","0","0","0","0","0","0","0","0","0","NA","0","0","Tue 09 Jul 2019 12:12:12 PM PDT","500","1000","The main experiment item","yes","NA","ABX_v3.osexp","/home/ubuntu/Desktop/panara","yes","no","mono","no","18","no","white","no","yes","768","0","0","/home/ubuntu/Desktop/panara/subject-111.csv","Jazzy James","3.1.3","4.1.3.wav","4.1.3.wav","4.1.1.wav","0","1","NA","1","NA","1642","NA","1642","NA","1475366","space","2","1024","2","48000","-16","experiment","4.1.1.wav","4.1.3.wav","4.1.3.wav","111","odd","1477204","1479656","1479156","1478443","NA","NA","1476203","1480376","754","NA","NA","1476201","1482018","NA","1476201","1476123","NA","1476204","756","New experiment","NA","0","0","0","yes","1024"
"undefined","undefined","undefined","undefined","black","no","legacy","0","uniform","undefined","undefined","undefined","1","1","3","1","1","NA","1","1","0","0","0","1","1","0","1","0","NA","1","0","Tue 09 Jul 2019 12:12:12 PM PDT","500","1000","The main experiment item","yes","NA","ABX_v3.osexp","/home/ubuntu/Desktop/panara","no","no","mono","no","18","no","white","no","yes","768","1","1","/home/ubuntu/Desktop/panara/subject-111.csv","Jazzy James","3.1.3","5.2.1.wav","5.2.3.wav","5.2.3.wav","0","0","NA","0","NA","2434","NA","2434","NA","1475366","space","2","1024","2","48000","-16","experiment","5.2.1.wav","5.2.3.wav","5.2.3.wav","111","odd","1483261","1485707","1485207","1484480","NA","NA","1482261","1486457","754","NA","NA","1482259","1488891","NA","1482259","1476123","NA","1482261","756","New experiment","NA","0","0","0","yes","1024"
"undefined","undefined","undefined","undefined","black","no","legacy","0","uniform","undefined","undefined","undefined","2","2","5","2","2","NA","2","2","0","0","0","2","2","0","2","0","NA","2","0","Tue 09 Jul 2019 12:12:12 PM PDT","500","1000","The main experiment item","yes","NA","ABX_v3.osexp","/home/ubuntu/Desktop/panara","no","no","mono","no","18","no","white","no","yes","768","2","2","/home/ubuntu/Desktop/panara/subject-111.csv","Jazzy James","3.1.3","3.1.1.wav","3.1.3.wav","3.1.3.wav","0","1","NA","1","NA","3592","NA","3592","NA","1475366","space","2","1024","2","48000","-16","experiment","3.1.1.wav","3.1.3.wav","3.1.3.wav","111","odd","1490121","1492601","1492101","1491352","NA","NA","1489121","1493346","754","NA","NA","1489118","1496939","NA","1489118","1476123","NA","1489121","756","New experiment","NA","0","0","0","yes","1024"
"undefined","undefined","undefined","undefined","black","no","legacy","0","uniform","undefined","undefined","undefined","3","3","7","3","3","NA","3","3","0","0","0","3","3","0","3","0","NA","3","0","Tue 09 Jul 2019 12:12:12 PM PDT","500","1000","The main experiment item","yes","NA","ABX_v3.osexp","/home/ubuntu/Desktop/panara","no","no","mono","no","18","no","white","no","yes","768","3","3","/home/ubuntu/Desktop/panara/subject-111.csv","Jazzy James","3.1.3","3.2.2.wav","3.2.4.wav","3.2.4.wav","0","1","NA","1","NA","1303","NA","1303","NA","1475366","space","2","1024","2","48000","-16","experiment","3.2.2.wav","3.2.4.wav","3.2.4.wav","111","odd","1498146","1500668","1500168","1499425","NA","NA","1497145","1501435","754","NA","NA","1497143","1502738","NA","1497143","1476123","NA","1497146","756","New experiment","NA","0","0","0","yes","1024"
"undefined","undefined","undefined","undefined","black","no","legacy","0","uniform","undefined","undefined","undefined","4","4","9","4","4","NA","4","4","0","0","0","4","4","0","4","0","NA","4","0","Tue 09 Jul 2019 12:12:12 PM PDT","500","1000","The main experiment item","yes","NA","ABX_v3.osexp","/home/ubuntu/Desktop/panara","yes","no","mono","no","18","no","white","no","yes","768","4","4","/home/ubuntu/Desktop/panara/subject-111.csv","Jazzy James","3.1.3","3.1.5.wav","3.1.3.wav","3.1.3.wav","0","0","NA","0","NA","1260","NA","1260","NA","1475366","space","2","1024","2","48000","-16","experiment","3.1.3.wav","3.1.5.wav","3.1.3.wav","111","odd","1503917","1506468","1505968","1505196","NA","NA","1502916","1507206","754","NA","NA","1502914","1508466","NA","1502914","1476123","NA","1502917","756","New experiment","NA","0","0","0","yes","1024"
"undefined","undefined","undefined","undefined","black","no","legacy","0","uniform","undefined","undefined","undefined","5","5","11","5","5","NA","5","5","0","0","0","5","5","0","5","0","NA","5","0","Tue 09 Jul 2019 12:12:12 PM PDT","500","1000","The main experiment item","yes","NA","ABX_v3.osexp","/home/ubuntu/Desktop/panara","yes","no","mono","no","18","no","white","no","yes","768","5","5","/home/ubuntu/Desktop/panara/subject-111.csv","Jazzy James","3.1.3","4.1.4.wav","4.1.4.wav","4.1.2.wav","0","1","NA","1","NA","1354","NA","1354","NA","1475366","space","2","1024","2","48000","-16","experiment","4.1.2.wav","4.1.4.wav","4.1.4.wav","111","odd","1509677","1512100","1511600","1510887","NA","NA","1508676","1512822","754","NA","NA","1508673","1514177","NA","1508673","1476123","NA","1508676","756","New experiment","NA","0","0","0","yes","1024"
"undefined","undefined","undefined","undefined","black","no","legacy","0","uniform","undefined","undefined","undefined","6","6","13","6","6","NA","6","6","0","0","0","6","6","0","6","0","NA","6","0","Tue 09 Jul 2019 12:12:12 PM PDT","500","1000","The main experiment item","yes","NA","ABX_v3.osexp","/home/ubuntu/Desktop/panara","yes","no","mono","no","18","no","white","no","yes","768","6","6","/home/ubuntu/Desktop/panara/subject-111.csv","Jazzy James","3.1.3","5.2.4.wav","5.2.2.wav","5.2.2.wav","0","1","NA","1","NA","2602","NA","2602","NA","1475366","space","2","1024","2","48000","-16","experiment","5.2.2.wav","5.2.4.wav","5.2.2.wav","111","odd","1515370","1517819","1517319","1516608","NA","NA","1514370","1518534","754","NA","NA","1514367","1521136","NA","1514367","1476123","NA","1514370","756","New experiment","NA","0","0","0","yes","1024"
"undefined","undefined","undefined","undefined","black","no","legacy","0","uniform","undefined","undefined","undefined","7","7","15","7","7","NA","7","7","0","0","0","7","7","0","7","0","NA","7","0","Tue 09 Jul 2019 12:12:12 PM PDT","500","1000","The main experiment item","yes","NA","ABX_v3.osexp","/home/ubuntu/Desktop/panara","no","no","mono","no","18","no","white","no","yes","768","7","7","/home/ubuntu/Desktop/panara/subject-111.csv","Jazzy James","3.1.3","1.2.2.wav","1.2.2.wav","1.2.4.wav","0","1","NA","1","NA","1738","NA","1738","NA","1475366","space","2","1024","2","48000","-16","experiment","1.2.2.wav","1.2.4.wav","1.2.2.wav","111","odd","1522343","1524904","1524404","1523617","NA","NA","1521343","1525638","754","NA","NA","1521340","1527376","NA","1521340","1476123","NA","1521343","756","New experiment","NA","0","0","0","yes","1024"
"undefined","undefined","undefined","undefined","black","no","legacy","0","uniform","undefined","undefined","undefined","8","8","17","8","8","NA","8","8","0","0","0","8","8","0","8","0","NA","8","0","Tue 09 Jul 2019 12:12:12 PM PDT","500","1000","The main experiment item","yes","NA","ABX_v3.osexp","/home/ubuntu/Desktop/panara","no","no","mono","no","18","no","white","no","yes","768","8","8","/home/ubuntu/Desktop/panara/subject-111.csv","Jazzy James","3.1.3","3.2.3.wav","3.2.5.wav","3.2.5.wav","0","1","NA","1","NA","1451","NA","1451","NA","1475366","space","2","1024","2","48000","-16","experiment","3.2.3.wav","3.2.5.wav","3.2.5.wav","111","odd","1528607","1531106","1530606","1529843","NA","NA","1527607","1531893","754","NA","NA","1527604","1533344","NA","1527604","1476123","NA","1527607","756","New experiment","NA","0","0","0","yes","1024"
"undefined","undefined","undefined","undefined","black","no","legacy","0","uniform","undefined","undefined","undefined","9","9","19","9","9","NA","9","9","0","0","0","9","9","0","9","0","NA","9","0","Tue 09 Jul 2019 12:12:12 PM PDT","500","1000","The main experiment item","yes","NA","ABX_v3.osexp","/home/ubuntu/Desktop/panara","yes","no","mono","no","18","no","white","no","yes","768","9","9","/home/ubuntu/Desktop/panara/subject-111.csv","Jazzy James","3.1.3","3.1.3.wav","3.1.1.wav","3.1.1.wav","0","0","NA","0","NA","1822","NA","1822","NA","1475366","space","2","1024","2","48000","-16","experiment","3.1.1.wav","3.1.3.wav","3.1.1.wav","111","odd","1534500","1536998","1536498","1535761","NA","NA","1533499","1537738","754","NA","NA","1533497","1539561","NA","1533497","1476123","NA","1533500","756","New experiment","NA","0","0","0","yes","1024"
"undefined","undefined","undefined","undefined","black","no","legacy","0","uniform","undefined","undefined","undefined","10","10","21","10","10","NA","10","10","0","0","0","10","10","0","10","0","NA","10","0","Tue 09 Jul 2019 12:12:12 PM PDT","500","1000","The main experiment item","yes","NA","ABX_v3.osexp","/home/ubuntu/Desktop/panara","yes","no","mono","no","18","no","white","no","yes","768","10","10","/home/ubuntu/Desktop/panara/subject-111.csv","Jazzy James","3.1.3","1.1.4.wav","1.1.2.wav","1.1.2.wav","0","1","NA","1","NA","1923","NA","1923","NA","1475366","space","2","1024","2","48000","-16","experiment","1.1.2.wav","1.1.4.wav","1.1.2.wav","111","odd","1540751","1543335","1542835","1542033","NA","NA","1539750","1544116","754","NA","NA","1539748","1546039","NA","1539748","1476123","NA","1539751","756","New experiment","NA","0","0","0","yes","1024"
"undefined","undefined","undefined","undefined","black","no","legacy","0","uniform","undefined","undefined","undefined","11","11","23","11","11","NA","11","11","0","0","0","11","11","0","11","0","NA","11","0","Tue 09 Jul 2019 12:12:12 PM PDT","500","1000","The main experiment item","yes","NA","ABX_v3.osexp","/home/ubuntu/Desktop/panara","yes","no","mono","no","18","no","white","no","yes","768","11","11","/home/ubuntu/Desktop/panara/subject-111.csv","Jazzy James","3.1.3","4.1.3.wav","4.1.1.wav","4.1.1.wav","0","0","NA","0","NA","1151","NA","1151","NA","1475366","space","2","1024","2","48000","-16","experiment","4.1.1.wav","4.1.3.wav","4.1.1.wav","111","odd","1547165","1549618","1549118","1548407","NA","NA","1546165","1550345","754","NA","NA","1546162","1551496","NA","1546162","1476123","NA","1546165","756","New experiment","NA","0","0","0","yes","1024"
"undefined","undefined","undefined","undefined","black","no","legacy","0","uniform","undefined","undefined","undefined","12","12","25","12","12","NA","12","12","0","0","0","12","12","0","12","0","NA","12","0","Tue 09 Jul 2019 12:12:12 PM PDT","500","1000","The main experiment item","yes","NA","ABX_v3.osexp","/home/ubuntu/Desktop/panara","yes","no","mono","no","18","no","white","no","yes","768","12","12","/home/ubuntu/Desktop/panara/subject-111.csv","Jazzy James","3.1.3","3.1.5.wav","3.1.5.wav","3.1.3.wav","0","1","NA","1","NA","877","NA","877","NA","1475366","space","2","1024","2","48000","-16","experiment","3.1.3.wav","3.1.5.wav","3.1.5.wav","111","odd","1552673","1555255","1554755","1553975","NA","NA","1551673","1555994","754","NA","NA","1551670","1556872","NA","1551670","1476123","NA","1551673","756","New experiment","NA","0","0","0","yes","1024"
"undefined","undefined","undefined","undefined","black","no","legacy","0","uniform","undefined","undefined","undefined","13","13","27","13","13","NA","13","13","0","0","0","13","13","0","13","0","NA","13","0","Tue 09 Jul 2019 12:12:12 PM PDT","500","1000","The main experiment item","yes","NA","ABX_v3.osexp","/home/ubuntu/Desktop/panara","no","no","mono","no","18","no","white","no","yes","768","13","13","/home/ubuntu/Desktop/panara/subject-111.csv","Jazzy James","3.1.3","4.2.1.wav","4.2.1.wav","4.2.3.wav","0","0","NA","0","NA","1121","NA","1121","NA","1475366","space","2","1024","2","48000","-16","experiment","4.2.1.wav","4.2.3.wav","4.2.1.wav","111","odd","1558091","1560583","1560083","1559338","NA","NA","1557091","1561334","754","NA","NA","1557089","1562455","NA","1557088","1476123","NA","1557091","756","New experiment","NA","0","0","0","yes","1024"
"undefined","undefined","undefined","undefined","black","no","legacy","0","uniform","undefined","undefined","undefined","14","14","29","14","14","NA","14","14","0","0","0","14","14","0","14","0","NA","14","0","Tue 09 Jul 2019 12:12:12 PM PDT","500","1000","The main experiment item","yes","NA","ABX_v3.osexp","/home/ubuntu/Desktop/panara","yes","no","mono","no","18","no","white","no","yes","768","14","14","/home/ubuntu/Desktop/panara/subject-111.csv","Jazzy James","3.1.3","1.1.4.wav","1.1.4.wav","1.1.2.wav","0","1","NA","1","NA","689","NA","689","NA","1475366","space","2","1024","2","48000","-16","experiment","1.1.2.wav","1.1.4.wav","1.1.4.wav","111","odd","1563635","1566215","1565715","1564924","NA","NA","1562634","1567006","754","NA","NA","1562631","1567695","NA","1562631","1476123","NA","1562634","756","New experiment","NA","0","0","0","yes","1024"
"undefined","undefined","undefined","undefined","black","no","legacy","0","uniform","undefined","undefined","undefined","15","15","31","15","15","NA","15","15","0","0","0","15","15","0","15","0","NA","15","0","Tue 09 Jul 2019 12:12:12 PM PDT","500","1000","The main experiment item","yes","NA","ABX_v3.osexp","/home/ubuntu/Desktop/panara","yes","no","mono","no","18","no","white","no","yes","768","15","15","/home/ubuntu/Desktop/panara/subject-111.csv","Jazzy James","3.1.3","2.2.5.wav","2.2.3.wav","2.2.3.wav","0","0","NA","0","NA","693","NA","693","NA","1475366","space","2","1024","2","48000","-16","experiment","2.2.3.wav","2.2.5.wav","2.2.3.wav","111","odd","1568898","1571382","1570882","1570130","NA","NA","1567898","1572122","754","NA","NA","1567895","1572815","NA","1567895","1476123","NA","1567898","756","New experiment","NA","0","0","0","yes","1024"
"undefined","undefined","undefined","undefined","black","no","legacy","0","uniform","undefined","undefined","undefined","16","16","33","16","16","NA","16","16","0","0","0","16","16","0","16","0","NA","16","0","Tue 09 Jul 2019 12:12:12 PM PDT","500","1000","The main experiment item","yes","NA","ABX_v3.osexp","/home/ubuntu/Desktop/panara","no","no","mono","no","18","no","white","no","yes","768","16","16","/home/ubuntu/Desktop/panara/subject-111.csv","Jazzy James","3.1.3","3.2.2.wav","3.2.2.wav","3.2.4.wav","0","1","NA","1","NA","1506","NA","1506","NA","1475366","space","2","1024","2","48000","-16","experiment","3.2.2.wav","3.2.4.wav","3.2.2.wav","111","odd","1573998","1576547","1576047","1575268","NA","NA","1572998","1577300","754","NA","NA","1572996","1578807","NA","1572996","1476123","NA","1572998","756","New experiment","NA","0","0","0","yes","1024"
"undefined","undefined","undefined","undefined","black","no","legacy","0","uniform","undefined","undefined","undefined","17","17","35","17","17","NA","17","17","0","0","0","17","17","0","17","0","NA","17","0","Tue 09 Jul 2019 12:12:12 PM PDT","500","1000","The main experiment item","yes","NA","ABX_v3.osexp","/home/ubuntu/Desktop/panara","no","no","mono","no","18","no","white","no","yes","768","17","17","/home/ubuntu/Desktop/panara/subject-111.csv","Jazzy James","3.1.3","2.2.1.wav","2.2.1.wav","2.2.3.wav","0","1","NA","1","NA","1378","NA","1378","NA","1475366","space","2","1024","2","48000","-16","experiment","2.2.1.wav","2.2.3.wav","2.2.1.wav","111","odd","1580014","1582522","1582022","1581280","NA","NA","1579013","1583236","754","NA","NA","1579010","1584614","NA","1579010","1476123","NA","1579014","756","New experiment","NA","0","0","0","yes","1024"
"undefined","undefined","undefined","undefined","black","no","legacy","0","uniform","undefined","undefined","undefined","18","18","37","18","18","NA","18","18","0","0","0","18","18","0","18","0","NA","18","0","Tue 09 Jul 2019 12:12:12 PM PDT","500","1000","The main experiment item","yes","NA","ABX_v3.osexp","/home/ubuntu/Desktop/panara","yes","no","mono","no","18","no","white","no","yes","768","18","18","/home/ubuntu/Desktop/panara/subject-111.csv","Jazzy James","3.1.3","5.2.4.wav","5.2.4.wav","5.2.2.wav","0","0","NA","0","NA","695","NA","695","NA","1475366","space","2","1024","2","48000","-16","experiment","5.2.2.wav","5.2.4.wav","5.2.4.wav","111","odd","1585806","1588277","1587777","1587043","NA","NA","1584805","1588999","754","NA","NA","1584803","1589694","NA","1584803","1476123","NA","1584806","756","New experiment","NA","0","0","0","yes","1024"
"undefined","undefined","undefined","undefined","black","no","legacy","0","uniform","undefined","undefined","undefined","19","19","39","19","19","NA","19","19","0","0","0","19","19","0","19","0","NA","19","0","Tue 09 Jul 2019 12:12:12 PM PDT","500","1000","The main experiment item","yes","NA","ABX_v3.osexp","/home/ubuntu/Desktop/panara","no","no","mono","no","18","no","white","no","yes","768","19","19","/home/ubuntu/Desktop/panara/subject-111.csv","Jazzy James","3.1.3","4.2.2.wav","4.2.4.wav","4.2.4.wav","0","1","NA","1","NA","887","NA","887","NA","1475366","space","2","1024","2","48000","-16","experiment","4.2.2.wav","4.2.4.wav","4.2.4.wav","111","odd","1590909","1593374","1592874","1592139","NA","NA","1589909","1594094","754","NA","NA","1589906","1594982","NA","1589906","1476123","NA","1589909","756","New experiment","NA","0","0","0","yes","1024"
"undefined","undefined","undefined","undefined","black","no","legacy","0","uniform","undefined","undefined","undefined","20","20","41","20","20","NA","20","20","0","0","0","20","20","0","20","0","NA","20","0","Tue 09 Jul 2019 12:12:12 PM PDT","500","1000","The main experiment item","yes","NA","ABX_v3.osexp","/home/ubuntu/Desktop/panara","yes","no","mono","no","18","no","white","no","yes","768","20","20","/home/ubuntu/Desktop/panara/subject-111.csv","Jazzy James","3.1.3","1.1.3.wav","1.1.1.wav","1.1.1.wav","0","1","NA","1","NA","1027","NA","1027","NA","1475366","space","2","1024","2","48000","-16","experiment","1.1.1.wav","1.1.3.wav","1.1.1.wav","111","odd","1596191","1598797","1598297","1597470","NA","NA","1595190","1599594","754","NA","NA","1595187","1600622","NA","1595187","1476123","NA","1595191","756","New experiment","NA","0","0","0","yes","1024"
"undefined","undefined","undefined","undefined","black","no","legacy","0","uniform","undefined","undefined","undefined","21","21","43","21","21","NA","21","21","0","0","0","21","21","0","21","0","NA","21","0","Tue 09 Jul 2019 12:12:12 PM PDT","500","1000","The main experiment item","yes","NA","ABX_v3.osexp","/home/ubuntu/Desktop/panara","no","no","mono","no","18","no","white","no","yes","768","21","21","/home/ubuntu/Desktop/panara/subject-111.csv","Jazzy James","3.1.3","4.1.3.wav","4.1.3.wav","4.1.5.wav","0","1","NA","1","NA","504","NA","504","NA","1475366","space","2","1024","2","48000","-16","experiment","4.1.3.wav","4.1.5.wav","4.1.3.wav","111","odd","1601821","1604255","1603755","1603044","NA","NA","1600820","1604973","754","NA","NA","1600817","1605477","NA","1600817","1476123","NA","1600820","756","New experiment","NA","0","0","0","yes","1024"
"undefined","undefined","undefined","undefined","black","no","legacy","0","uniform","undefined","undefined","undefined","22","22","45","22","22","NA","22","22","0","0","0","22","22","0","22","0","NA","22","0","Tue 09 Jul 2019 12:12:12 PM PDT","500","1000","The main experiment item","yes","NA","ABX_v3.osexp","/home/ubuntu/Desktop/panara","yes","no","mono","no","18","no","white","no","yes","768","22","22","/home/ubuntu/Desktop/panara/subject-111.csv","Jazzy James","3.1.3","1.2.4.wav","1.2.4.wav","1.2.2.wav","0","1","NA","1","NA","658","NA","658","NA","1475366","space","2","1024","2","48000","-16","experiment","1.2.2.wav","1.2.4.wav","1.2.4.wav","111","odd","1606687","1609189","1608689","1607933","NA","NA","1605686","1609947","754","NA","NA","1605684","1610605","NA","1605684","1476123","NA","1605687","756","New experiment","NA","0","0","0","yes","1024"
"undefined","undefined","undefined","undefined","black","no","legacy","0","uniform","undefined","undefined","undefined","23","23","47","23","23","NA","23","23","0","0","0","23","23","0","23","0","NA","23","0","Tue 09 Jul 2019 12:12:12 PM PDT","500","1000","The main experiment item","yes","NA","ABX_v3.osexp","/home/ubuntu/Desktop/panara","yes","no","mono","no","18","no","white","no","yes","768","23","23","/home/ubuntu/Desktop/panara/subject-111.csv","Jazzy James","3.1.3","1.1.3.wav","1.1.3.wav","1.1.1.wav","0","1","NA","1","NA","483","NA","483","NA","1475366","space","2","1024","2","48000","-16","experiment","1.1.1.wav","1.1.3.wav","1.1.3.wav","111","odd","1611769","1614366","1613866","1613083","NA","NA","1610769","1615153","754","NA","NA","1610767","1615637","NA","1610766","1476123","NA","1610769","756","New experiment","NA","0","0","0","yes","1024"
"undefined","undefined","undefined","undefined","black","no","legacy","0","uniform","undefined","undefined","undefined","24","24","49","24","24","NA","24","24","0","0","0","24","24","0","24","0","NA","24","0","Tue 09 Jul 2019 12:12:12 PM PDT","500","1000","The main experiment item","yes","NA","ABX_v3.osexp","/home/ubuntu/Desktop/panara","yes","no","mono","no","18","no","white","no","yes","768","24","24","/home/ubuntu/Desktop/panara/subject-111.csv","Jazzy James","3.1.3","3.1.4.wav","3.1.2.wav","3.1.2.wav","0","1","NA","1","NA","671","NA","671","NA","1475366","space","2","1024","2","48000","-16","experiment","3.1.2.wav","3.1.4.wav","3.1.2.wav","111","odd","1616854","1619409","1618909","1618147","NA","NA","1615853","1620181","754","NA","NA","1615851","1620853","NA","1615850","1476123","NA","1615854","756","New experiment","NA","0","0","0","yes","1024"
"undefined","undefined","undefined","undefined","black","no","legacy","0","uniform","undefined","undefined","undefined","25","25","51","25","25","NA","25","25","0","0","0","25","25","0","25","0","NA","25","0","Tue 09 Jul 2019 12:12:12 PM PDT","500","1000","The main experiment item","yes","NA","ABX_v3.osexp","/home/ubuntu/Desktop/panara","yes","no","mono","no","18","no","white","no","yes","768","25","25","/home/ubuntu/Desktop/panara/subject-111.csv","Jazzy James","3.1.3","2.1.4.wav","2.1.4.wav","2.1.2.wav","0","0","NA","0","NA","510","NA","510","NA","1475366","space","2","1024","2","48000","-16","experiment","2.1.2.wav","2.1.4.wav","2.1.4.wav","111","odd","1622055","1624567","1624067","1623322","NA","NA","1621055","1625310","754","NA","NA","1621052","1625820","NA","1621052","1476123","NA","1621055","756","New experiment","NA","0","0","0","yes","1024"
"undefined","undefined","undefined","undefined","black","no","legacy","0","uniform","undefined","undefined","undefined","26","26","53","26","26","NA","26","26","0","0","0","26","26","0","26","0","NA","26","0","Tue 09 Jul 2019 12:12:12 PM PDT","500","1000","The main experiment item","yes","NA","ABX_v3.osexp","/home/ubuntu/Desktop/panara","yes","no","mono","no","18","no","white","no","yes","768","26","26","/home/ubuntu/Desktop/panara/subject-111.csv","Jazzy James","3.1.3","4.2.5.wav","4.2.3.wav","4.2.3.wav","0","1","NA","1","NA","1005","NA","1005","NA","1475366","space","2","1024","2","48000","-16","experiment","4.2.3.wav","4.2.5.wav","4.2.3.wav","111","odd","1627003","1629470","1628970","1628213","NA","NA","1626003","1630238","754","NA","NA","1626001","1631243","NA","1626001","1476123","NA","1626003","756","New experiment","NA","0","0","0","yes","1024"
"undefined","undefined","undefined","undefined","black","no","legacy","0","uniform","undefined","undefined","undefined","27","27","55","27","27","NA","27","27","0","0","0","27","27","0","27","0","NA","27","0","Tue 09 Jul 2019 12:12:12 PM PDT","500","1000","The main experiment item","yes","NA","ABX_v3.osexp","/home/ubuntu/Desktop/panara","yes","no","mono","no","18","no","white","no","yes","768","27","27","/home/ubuntu/Desktop/panara/subject-111.csv","Jazzy James","3.1.3","1.1.5.wav","1.1.5.wav","1.1.3.wav","0","1","NA","1","NA","560","NA","560","NA","1475366","space","2","1024","2","48000","-16","experiment","1.1.3.wav","1.1.5.wav","1.1.5.wav","111","odd","1632449","1635020","1634520","1633735","NA","NA","1631449","1635795","754","NA","NA","1631446","1636355","NA","1631446","1476123","NA","1631449","756","New experiment","NA","0","0","0","yes","1024"
"undefined","undefined","undefined","undefined","black","no","legacy","0","uniform","undefined","undefined","undefined","28","28","57","28","28","NA","28","28","0","0","0","28","28","0","28","0","NA","28","0","Tue 09 Jul 2019 12:12:12 PM PDT","500","1000","The main experiment item","yes","NA","ABX_v3.osexp","/home/ubuntu/Desktop/panara","no","no","mono","no","18","no","white","no","yes","768","28","28","/home/ubuntu/Desktop/panara/subject-111.csv","Jazzy James","3.1.3","4.1.2.wav","4.1.2.wav","4.1.4.wav","0","1","NA","1","NA","734","NA","734","NA","1475366","space","2","1024","2","48000","-16","experiment","4.1.2.wav","4.1.4.wav","4.1.2.wav","111","odd","1637519","1639988","1639487","1638775","NA","NA","1636518","1640701","754","NA","NA","1636516","1641436","NA","1636516","1476123","NA","1636519","756","New experiment","NA","0","0","0","yes","1024"
"undefined","undefined","undefined","undefined","black","no","legacy","0","uniform","undefined","undefined","undefined","29","29","59","29","29","NA","29","29","0","0","0","29","29","0","29","0","NA","29","0","Tue 09 Jul 2019 12:12:12 PM PDT","500","1000","The main experiment item","yes","NA","ABX_v3.osexp","/home/ubuntu/Desktop/panara","yes","no","mono","no","18","no","white","no","yes","768","29","29","/home/ubuntu/Desktop/panara/subject-111.csv","Jazzy James","3.1.3","1.2.3.wav","1.2.3.wav","1.2.1.wav","0","0","NA","0","NA","604","NA","604","NA","1475366","space","2","1024","2","48000","-16","experiment","1.2.1.wav","1.2.3.wav","1.2.3.wav","111","odd","1642583","1645136","1644636","1643869","NA","NA","1641583","1645911","754","NA","NA","1641580","1646515","NA","1641580","1476123","NA","1641583","756","New experiment","NA","0","0","0","yes","1024"
"undefined","undefined","undefined","undefined","black","no","legacy","0","uniform","undefined","undefined","undefined","30","30","61","30","30","NA","30","30","0","0","0","30","30","0","30","0","NA","30","0","Tue 09 Jul 2019 12:12:12 PM PDT","500","1000","The main experiment item","yes","NA","ABX_v3.osexp","/home/ubuntu/Desktop/panara","yes","no","mono","no","18","no","white","no","yes","768","30","30","/home/ubuntu/Desktop/panara/subject-111.csv","Jazzy James","3.1.3","4.2.5.wav","4.2.5.wav","4.2.3.wav","0","1","NA","1","NA","714","NA","714","NA","1475366","space","2","1024","2","48000","-16","experiment","4.2.3.wav","4.2.5.wav","4.2.5.wav","111","odd","1647679","1650136","1649635","1648925","NA","NA","1646679","1650889","754","NA","NA","1646677","1651603","NA","1646677","1476123","NA","1646679","756","New experiment","NA","0","0","0","yes","1024"
"undefined","undefined","undefined","undefined","black","no","legacy","0","uniform","undefined","undefined","undefined","31","31","63","31","31","NA","31","31","0","0","0","31","31","0","31","0","NA","31","0","Tue 09 Jul 2019 12:12:12 PM PDT","500","1000","The main experiment item","yes","NA","ABX_v3.osexp","/home/ubuntu/Desktop/panara","yes","no","mono","no","18","no","white","no","yes","768","31","31","/home/ubuntu/Desktop/panara/subject-111.csv","Jazzy James","3.1.3","5.2.5.wav","5.2.3.wav","5.2.3.wav","0","0","NA","0","NA","799","NA","799","NA","1475366","space","2","1024","2","48000","-16","experiment","5.2.3.wav","5.2.5.wav","5.2.3.wav","111","odd","1652791","1655260","1654760","1654050","NA","NA","1651790","1655996","754","NA","NA","1651788","1656795","NA","1651788","1476123","NA","1651791","756","New experiment","NA","0","0","0","yes","1024"
"undefined","undefined","undefined","undefined","black","no","legacy","0","uniform","undefined","undefined","undefined","32","32","65","32","32","NA","32","32","0","0","0","32","32","0","32","0","NA","32","0","Tue 09 Jul 2019 12:12:12 PM PDT","500","1000","The main experiment item","yes","NA","ABX_v3.osexp","/home/ubuntu/Desktop/panara","yes","no","mono","no","18","no","white","no","yes","768","32","32","/home/ubuntu/Desktop/panara/subject-111.csv","Jazzy James","3.1.3","5.2.5.wav","5.2.5.wav","5.2.3.wav","0","0","NA","0","NA","2742","NA","2742","NA","1475366","space","2","1024","2","48000","-16","experiment","5.2.3.wav","5.2.5.wav","5.2.5.wav","111","odd","1658002","1660461","1659961","1659250","NA","NA","1657002","1661188","754","NA","NA","1657000","1663931","NA","1657000","1476123","NA","1657002","756","New experiment","NA","0","0","0","yes","1024"
"undefined","undefined","undefined","undefined","black","no","legacy","0","uniform","undefined","undefined","undefined","33","33","67","33","33","NA","33","33","0","0","0","33","33","0","33","0","NA","33","0","Tue 09 Jul 2019 12:12:12 PM PDT","500","1000","The main experiment item","yes","NA","ABX_v3.osexp","/home/ubuntu/Desktop/panara","yes","no","mono","no","18","no","white","no","yes","768","33","33","/home/ubuntu/Desktop/panara/subject-111.csv","Jazzy James","3.1.3","1.2.3.wav","1.2.1.wav","1.2.1.wav","0","0","NA","0","NA","872","NA","872","NA","1475366","space","2","1024","2","48000","-16","experiment","1.2.1.wav","1.2.3.wav","1.2.1.wav","111","odd","1665102","1667653","1667153","1666383","NA","NA","1664102","1668441","754","NA","NA","1664099","1669313","NA","1664099","1476123","NA","1664102","756","New experiment","NA","0","0","0","yes","1024"
"undefined","undefined","undefined","undefined","black","no","legacy","0","uniform","undefined","undefined","undefined","34","34","69","34","34","NA","34","34","0","0","0","34","34","0","34","0","NA","34","0","Tue 09 Jul 2019 12:12:12 PM PDT","500","1000","The main experiment item","yes","NA","ABX_v3.osexp","/home/ubuntu/Desktop/panara","no","no","mono","no","18","no","white","no","yes","768","34","34","/home/ubuntu/Desktop/panara/subject-111.csv","Jazzy James","3.1.3","1.2.3.wav","1.2.5.wav","1.2.5.wav","0","1","NA","1","NA","1001","NA","1001","NA","1475366","space","2","1024","2","48000","-16","experiment","1.2.3.wav","1.2.5.wav","1.2.5.wav","111","odd","1670484","1673031","1672531","1671756","NA","NA","1669484","1673817","754","NA","NA","1669482","1674818","NA","1669482","1476123","NA","1669484","756","New experiment","NA","0","0","0","yes","1024"
"undefined","undefined","undefined","undefined","black","no","legacy","0","uniform","undefined","undefined","undefined","35","35","71","35","35","NA","35","35","0","0","0","35","35","0","35","0","NA","35","0","Tue 09 Jul 2019 12:12:12 PM PDT","500","1000","The main experiment item","yes","NA","ABX_v3.osexp","/home/ubuntu/Desktop/panara","yes","no","mono","no","18","no","white","no","yes","768","35","35","/home/ubuntu/Desktop/panara/subject-111.csv","Jazzy James","3.1.3","2.1.3.wav","2.1.1.wav","2.1.1.wav","0","0","NA","0","NA","818","NA","818","NA","1475366","space","2","1024","2","48000","-16","experiment","2.1.1.wav","2.1.3.wav","2.1.1.wav","111","odd","1676002","1678492","1677992","1677259","NA","NA","1675002","1679238","754","NA","NA","1675000","1680057","NA","1675000","1476123","NA","1675002","756","New experiment","NA","0","0","0","yes","1024"
"undefined","undefined","undefined","undefined","black","no","legacy","0","uniform","undefined","undefined","undefined","36","36","73","36","36","NA","36","36","0","0","0","36","36","0","36","0","NA","36","0","Tue 09 Jul 2019 12:12:12 PM PDT","500","1000","The main experiment item","yes","NA","ABX_v3.osexp","/home/ubuntu/Desktop/panara","yes","no","mono","no","18","no","white","no","yes","768","36","36","/home/ubuntu/Desktop/panara/subject-111.csv","Jazzy James","3.1.3","2.2.3.wav","2.2.3.wav","2.2.1.wav","0","1","NA","1","NA","891","NA","891","NA","1475366","space","2","1024","2","48000","-16","experiment","2.2.1.wav","2.2.3.wav","2.2.3.wav","111","odd","1681226","1683679","1683179","1682455","NA","NA","1680226","1684413","754","NA","NA","1680223","1685305","NA","1680223","1476123","NA","1680226","756","New experiment","NA","0","0","0","yes","1024"
"undefined","undefined","undefined","undefined","black","no","legacy","0","uniform","undefined","undefined","undefined","37","37","75","37","37","NA","37","37","0","0","0","37","37","0","37","0","NA","37","0","Tue 09 Jul 2019 12:12:12 PM PDT","500","1000","The main experiment item","yes","NA","ABX_v3.osexp","/home/ubuntu/Desktop/panara","yes","no","mono","no","18","no","white","no","yes","768","37","37","/home/ubuntu/Desktop/panara/subject-111.csv","Jazzy James","3.1.3","2.1.3.wav","2.1.3.wav","2.1.1.wav","0","0","NA","0","NA","1925","NA","1925","NA","1475366","space","2","1024","2","48000","-16","experiment","2.1.1.wav","2.1.3.wav","2.1.3.wav","111","odd","1686530","1689014","1688514","1687757","NA","NA","1685530","1689748","754","NA","NA","1685527","1691673","NA","1685527","1476123","NA","1685530","756","New experiment","NA","0","0","0","yes","1024"
"undefined","undefined","undefined","undefined","black","no","legacy","0","uniform","undefined","undefined","undefined","38","38","77","38","38","NA","38","38","0","0","0","38","38","0","38","0","NA","38","0","Tue 09 Jul 2019 12:12:12 PM PDT","500","1000","The main experiment item","yes","NA","ABX_v3.osexp","/home/ubuntu/Desktop/panara","yes","no","mono","no","18","no","white","no","yes","768","38","38","/home/ubuntu/Desktop/panara/subject-111.csv","Jazzy James","3.1.3","3.2.3.wav","3.2.1.wav","3.2.1.wav","0","1","NA","1","NA","781","NA","781","NA","1475366","space","2","1024","2","48000","-16","experiment","3.2.1.wav","3.2.3.wav","3.2.1.wav","111","odd","1692889","1695432","1694932","1694148","NA","NA","1691889","1696172","754","NA","NA","1691886","1696953","NA","1691886","1476123","NA","1691889","756","New experiment","NA","0","0","0","yes","1024"
"undefined","undefined","undefined","undefined","black","no","legacy","0","uniform","undefined","undefined","undefined","39","39","79","39","39","NA","39","39","0","0","0","39","39","0","39","0","NA","39","0","Tue 09 Jul 2019 12:12:12 PM PDT","500","1000","The main experiment item","yes","NA","ABX_v3.osexp","/home/ubuntu/Desktop/panara","yes","no","mono","no","18","no","white","no","yes","768","39","39","/home/ubuntu/Desktop/panara/subject-111.csv","Jazzy James","3.1.3","2.2.4.wav","2.2.4.wav","2.2.2.wav","0","1","NA","1","NA","1204","NA","1204","NA","1475366","space","2","1024","2","48000","-16","experiment","2.2.2.wav","2.2.4.wav","2.2.4.wav","111","odd","1698168","1700617","1700117","1699406","NA","NA","1697168","1701332","754","NA","NA","1697165","1702537","NA","1697165","1476123","NA","1697168","756","New experiment","NA","0","0","0","yes","1024"
"undefined","undefined","undefined","undefined","black","no","legacy","0","uniform","undefined","undefined","undefined","40","40","81","40","40","NA","40","40","0","0","0","40","40","0","40","0","NA","40","0","Tue 09 Jul 2019 12:12:12 PM PDT","500","1000","The main experiment item","yes","NA","ABX_v3.osexp","/home/ubuntu/Desktop/panara","no","no","mono","no","18","no","white","no","yes","768","40","40","/home/ubuntu/Desktop/panara/subject-111.csv","Jazzy James","3.1.3","2.1.3.wav","2.1.3.wav","2.1.5.wav","0","1","NA","1","NA","2471","NA","2471","NA","1475366","space","2","1024","2","48000","-16","experiment","2.1.3.wav","2.1.5.wav","2.1.3.wav","111","odd","1703744","1706232","1705732","1704992","NA","NA","1702744","1706985","754","NA","NA","1702741","1709457","NA","1702741","1476123","NA","1702744","756","New experiment","NA","0","0","0","yes","1024"
"undefined","undefined","undefined","undefined","black","no","legacy","0","uniform","undefined","undefined","undefined","41","41","83","41","41","NA","41","41","0","0","0","41","41","0","41","0","NA","41","0","Tue 09 Jul 2019 12:12:12 PM PDT","500","1000","The main experiment item","yes","NA","ABX_v3.osexp","/home/ubuntu/Desktop/panara","yes","no","mono","no","18","no","white","no","yes","768","41","41","/home/ubuntu/Desktop/panara/subject-111.csv","Jazzy James","3.1.3","3.1.4.wav","3.1.4.wav","3.1.2.wav","0","1","NA","1","NA","1285","NA","1285","NA","1475366","space","2","1024","2","48000","-16","experiment","3.1.2.wav","3.1.4.wav","3.1.4.wav","111","odd","1710631","1713216","1712716","1711920","NA","NA","1709631","1714002","754","NA","NA","1709629","1715287","NA","1709629","1476123","NA","1709631","756","New experiment","NA","0","0","0","yes","1024"
"undefined","undefined","undefined","undefined","black","no","legacy","0","uniform","undefined","undefined","undefined","42","42","85","42","42","NA","42","42","0","0","0","42","42","0","42","0","NA","42","0","Tue 09 Jul 2019 12:12:12 PM PDT","500","1000","The main experiment item","yes","NA","ABX_v3.osexp","/home/ubuntu/Desktop/panara","no","no","mono","no","18","no","white","no","yes","768","42","42","/home/ubuntu/Desktop/panara/subject-111.csv","Jazzy James","3.1.3","1.2.3.wav","1.2.3.wav","1.2.5.wav","0","1","NA","1","NA","1394","NA","1394","NA","1475366","space","2","1024","2","48000","-16","experiment","1.2.3.wav","1.2.5.wav","1.2.3.wav","111","odd","1716431","1718968","1718467","1717704","NA","NA","1715431","1719748","754","NA","NA","1715429","1721143","NA","1715429","1476123","NA","1715431","756","New experiment","NA","0","0","0","yes","1024"
"undefined","undefined","undefined","undefined","black","no","legacy","0","uniform","undefined","undefined","undefined","43","43","87","43","43","NA","43","43","0","0","0","43","43","0","43","0","NA","43","0","Tue 09 Jul 2019 12:12:12 PM PDT","500","1000","The main experiment item","yes","NA","ABX_v3.osexp","/home/ubuntu/Desktop/panara","yes","no","mono","no","18","no","white","no","yes","768","43","43","/home/ubuntu/Desktop/panara/subject-111.csv","Jazzy James","3.1.3","3.2.3.wav","3.2.3.wav","3.2.1.wav","0","1","NA","1","NA","1453","NA","1453","NA","1475366","space","2","1024","2","48000","-16","experiment","3.2.1.wav","3.2.3.wav","3.2.3.wav","111","odd","1722334","1724829","1724329","1723574","NA","NA","1721334","1725569","754","NA","NA","1721332","1727023","NA","1721332","1476123","NA","1721334","756","New experiment","NA","0","0","0","yes","1024"
"undefined","undefined","undefined","undefined","black","no","legacy","0","uniform","undefined","undefined","undefined","44","44","89","44","44","NA","44","44","0","0","0","44","44","0","44","0","NA","44","0","Tue 09 Jul 2019 12:12:12 PM PDT","500","1000","The main experiment item","yes","NA","ABX_v3.osexp","/home/ubuntu/Desktop/panara","no","no","mono","no","18","no","white","no","yes","768","44","44","/home/ubuntu/Desktop/panara/subject-111.csv","Jazzy James","3.1.3","4.2.2.wav","4.2.2.wav","4.2.4.wav","0","0","NA","0","NA","1635","NA","1635","NA","1475366","space","2","1024","2","48000","-16","experiment","4.2.2.wav","4.2.4.wav","4.2.2.wav","111","odd","1728184","1730644","1730144","1729433","NA","NA","1727184","1731371","754","NA","NA","1727181","1733006","NA","1727181","1476123","NA","1727184","756","New experiment","NA","0","0","0","yes","1024"
"undefined","undefined","undefined","undefined","black","no","legacy","0","uniform","undefined","undefined","undefined","45","45","91","45","45","NA","45","45","0","0","0","45","45","0","45","0","NA","45","0","Tue 09 Jul 2019 12:12:12 PM PDT","500","1000","The main experiment item","yes","NA","ABX_v3.osexp","/home/ubuntu/Desktop/panara","yes","no","mono","no","18","no","white","no","yes","768","45","45","/home/ubuntu/Desktop/panara/subject-111.csv","Jazzy James","3.1.3","4.1.5.wav","4.1.5.wav","4.1.3.wav","0","2","NA","2","NA","877","NA","877","NA","1475366","space","2","1024","2","48000","-16","experiment","4.1.3.wav","4.1.5.wav","4.1.5.wav","111","odd","1734167","1736626","1736126","1735385","NA","NA","1733167","1737345","754","NA","NA","1733165","1738222","NA","1733165","1476123","NA","1733167","756","New experiment","NA","0","0","0","yes","1024"
"undefined","undefined","undefined","undefined","black","no","legacy","0","uniform","undefined","undefined","undefined","46","46","93","46","46","NA","46","46","0","0","0","46","46","0","46","0","NA","46","0","Tue 09 Jul 2019 12:12:12 PM PDT","500","1000","The main experiment item","yes","NA","ABX_v3.osexp","/home/ubuntu/Desktop/panara","yes","no","mono","no","18","no","white","no","yes","768","46","46","/home/ubuntu/Desktop/panara/subject-111.csv","Jazzy James","3.1.3","4.2.3.wav","4.2.3.wav","4.2.1.wav","0","2","NA","2","NA","660","NA","660","NA","1475366","space","2","1024","2","48000","-16","experiment","4.2.1.wav","4.2.3.wav","4.2.3.wav","111","odd","1739413","1741889","1741389","1740658","NA","NA","1738412","1742657","754","NA","NA","1738410","1743318","NA","1738410","1476123","NA","1738413","756","New experiment","NA","0","0","0","yes","1024"
"undefined","undefined","undefined","undefined","black","no","legacy","0","uniform","undefined","undefined","undefined","47","47","95","47","47","NA","47","47","0","0","0","47","47","0","47","0","NA","47","0","Tue 09 Jul 2019 12:12:12 PM PDT","500","1000","The main experiment item","yes","NA","ABX_v3.osexp","/home/ubuntu/Desktop/panara","yes","no","mono","no","18","no","white","no","yes","768","47","47","/home/ubuntu/Desktop/panara/subject-111.csv","Jazzy James","3.1.3","5.2.3.wav","5.2.1.wav","5.2.1.wav","0","0","NA","0","NA","862","NA","862","NA","1475366","space","2","1024","2","48000","-16","experiment","5.2.1.wav","5.2.3.wav","5.2.1.wav","111","odd","1744505","1746990","1746490","1745778","NA","NA","1743505","1747704","754","NA","NA","1743502","1748567","NA","1743502","1476123","NA","1743505","756","New experiment","NA","0","0","0","yes","1024"
"undefined","undefined","undefined","undefined","black","no","legacy","0","uniform","undefined","undefined","undefined","48","48","97","48","48","NA","48","48","0","0","0","48","48","0","48","0","NA","48","0","Tue 09 Jul 2019 12:12:12 PM PDT","500","1000","The main experiment item","yes","NA","ABX_v3.osexp","/home/ubuntu/Desktop/panara","yes","no","mono","no","18","no","white","no","yes","768","48","48","/home/ubuntu/Desktop/panara/subject-111.csv","Jazzy James","3.1.3","1.1.5.wav","1.1.3.wav","1.1.3.wav","0","2","NA","2","NA","973","NA","973","NA","1475366","space","2","1024","2","48000","-16","experiment","1.1.3.wav","1.1.5.wav","1.1.3.wav","111","odd","1749748","1752297","1751797","1751026","NA","NA","1748747","1753088","754","NA","NA","1748744","1754061","NA","1748744","1476123","NA","1748747","756","New experiment","NA","0","0","0","yes","1024"
"undefined","undefined","undefined","undefined","black","no","legacy","0","uniform","undefined","undefined","undefined","49","49","99","49","49","NA","49","49","0","0","0","49","49","0","49","0","NA","49","0","Tue 09 Jul 2019 12:12:12 PM PDT","500","1000","The main experiment item","yes","NA","ABX_v3.osexp","/home/ubuntu/Desktop/panara","yes","no","mono","no","18","no","white","no","yes","768","49","49","/home/ubuntu/Desktop/panara/subject-111.csv","Jazzy James","3.1.3","2.1.5.wav","2.1.5.wav","2.1.3.wav","0","2","NA","2","NA","873","NA","873","NA","1475366","space","2","1024","2","48000","-16","experiment","2.1.3.wav","2.1.5.wav","2.1.5.wav","111","odd","1755217","1757701","1757201","1756457","NA","NA","1754217","1758460","754","NA","NA","1754214","1759333","NA","1754214","1476123","NA","1754217","756","New experiment","NA","0","0","0","yes","1024"
"undefined","undefined","undefined","undefined","black","no","legacy","0","uniform","undefined","undefined","undefined","50","50","101","50","50","NA","50","50","0","0","0","50","50","0","50","0","NA","50","0","Tue 09 Jul 2019 12:12:12 PM PDT","500","1000","The main experiment item","yes","NA","ABX_v3.osexp","/home/ubuntu/Desktop/panara","no","no","mono","no","18","no","white","no","yes","768","50","50","/home/ubuntu/Desktop/panara/subject-111.csv","Jazzy James","3.1.3","2.2.3.wav","2.2.5.wav","2.2.5.wav","0","0","space","0","NA","272","25193","272","NA","1475366","space","2","1024","2","48000","-16","experiment","2.2.3.wav","2.2.5.wav","2.2.5.wav","111","odd","1785720","1788140","1787640","1786928","1759523","NA","1784720","1788859","754","NA","NA","1759521","1789132","NA","1759521","1476123","NA","1784720","756","New experiment","NA","0","0","0","yes","1024"
"undefined","undefined","undefined","undefined","black","no","legacy","0","uniform","undefined","undefined","undefined","51","51","103","51","51","NA","51","51","0","0","0","51","51","0","51","0","NA","51","0","Tue 09 Jul 2019 12:12:12 PM PDT","500","1000","The main experiment item","yes","NA","ABX_v3.osexp","/home/ubuntu/Desktop/panara","yes","no","mono","no","18","no","white","no","yes","768","51","51","/home/ubuntu/Desktop/panara/subject-111.csv","Jazzy James","3.1.3","2.2.4.wav","2.2.2.wav","2.2.2.wav","0","0","space","0","NA","626","25193","626","NA","1475366","space","2","1024","2","48000","-16","experiment","2.2.2.wav","2.2.4.wav","2.2.2.wav","111","odd","1790317","1792785","1792285","1791574","1759523","NA","1789317","1793513","754","NA","NA","1789314","1794140","NA","1789314","1476123","NA","1789317","756","New experiment","NA","0","0","0","yes","1024"
"undefined","undefined","undefined","undefined","black","no","legacy","0","uniform","undefined","undefined","undefined","52","52","105","52","52","NA","52","52","0","0","0","52","52","0","52","0","NA","52","0","Tue 09 Jul 2019 12:12:12 PM PDT","500","1000","The main experiment item","yes","NA","ABX_v3.osexp","/home/ubuntu/Desktop/panara","yes","no","mono","no","18","no","white","no","yes","768","52","52","/home/ubuntu/Desktop/panara/subject-111.csv","Jazzy James","3.1.3","2.1.4.wav","2.1.2.wav","2.1.2.wav","0","0","space","0","NA","900","25193","900","NA","1475366","space","2","1024","2","48000","-16","experiment","2.1.2.wav","2.1.4.wav","2.1.2.wav","111","odd","1795300","1798064","1797564","1796561","1759523","NA","1794300","1798816","754","NA","NA","1794297","1799716","NA","1794297","1476123","NA","1794300","756","New experiment","NA","0","0","0","yes","1024"
"undefined","undefined","undefined","undefined","black","no","legacy","0","uniform","undefined","undefined","undefined","53","53","107","53","53","NA","53","53","0","0","0","53","53","0","53","0","NA","53","0","Tue 09 Jul 2019 12:12:12 PM PDT","500","1000","The main experiment item","yes","NA","ABX_v3.osexp","/home/ubuntu/Desktop/panara","yes","no","mono","no","18","no","white","no","yes","768","53","53","/home/ubuntu/Desktop/panara/subject-111.csv","Jazzy James","3.1.3","3.2.5.wav","3.2.3.wav","3.2.3.wav","0","1","space","1","NA","659","25193","659","NA","1475366","space","2","1024","2","48000","-16","experiment","3.2.3.wav","3.2.5.wav","3.2.3.wav","111","odd","1800892","1803417","1802917","1802170","1759523","NA","1799891","1804169","754","NA","NA","1799889","1804828","NA","1799889","1476123","NA","1799892","756","New experiment","NA","0","0","0","yes","1024"
"undefined","undefined","undefined","undefined","black","no","legacy","0","uniform","undefined","undefined","undefined","54","54","109","54","54","NA","54","54","0","0","0","54","54","0","54","0","NA","54","0","Tue 09 Jul 2019 12:12:12 PM PDT","500","1000","The main experiment item","yes","NA","ABX_v3.osexp","/home/ubuntu/Desktop/panara","no","no","mono","no","18","no","white","no","yes","768","0","53","/home/ubuntu/Desktop/panara/subject-111.csv","Jazzy James","3.1.3","4.1.1.wav","4.1.3.wav","4.2.3.wav","0","1","space","1","NA","725","25193","725","NA","1475366","space","2","1024","2","48000","-16","experiment","4.1.1.wav","4.2.3.wav","4.1.3.wav","111","odd","1806025","1808494","1807994","1807241","1759523","NA","1805025","1809246","754","NA","NA","1805022","1809972","1804947","1805022","1476123","NA","1805025","756","New experiment","NA","0","0","0","yes","1024"
"undefined","undefined","undefined","undefined","black","no","legacy","0","uniform","undefined","undefined","undefined","55","55","111","55","55","NA","55","55","0","0","0","55","55","0","55","0","NA","55","0","Tue 09 Jul 2019 12:12:12 PM PDT","500","1000","The main experiment item","yes","NA","ABX_v3.osexp","/home/ubuntu/Desktop/panara","yes","no","mono","no","18","no","white","no","yes","768","1","53","/home/ubuntu/Desktop/panara/subject-111.csv","Jazzy James","3.1.3","2.1.4.wav","2.1.2.wav","1.1.2.wav","0","1","space","1","NA","671","25193","671","NA","1475366","space","2","1024","2","48000","-16","experiment","1.1.2.wav","2.1.4.wav","2.1.2.wav","111","odd","1811140","1813635","1813135","1812397","1759523","NA","1810140","1814419","754","NA","NA","1810137","1815091","1804947","1810137","1476123","NA","1810140","756","New experiment","NA","0","0","0","yes","1024"
"undefined","undefined","undefined","undefined","black","no","legacy","0","uniform","undefined","undefined","undefined","56","56","113","56","56","NA","56","56","0","0","0","56","56","0","56","0","NA","56","0","Tue 09 Jul 2019 12:12:12 PM PDT","500","1000","The main experiment item","yes","NA","ABX_v3.osexp","/home/ubuntu/Desktop/panara","yes","no","mono","no","18","no","white","no","yes","768","2","53","/home/ubuntu/Desktop/panara/subject-111.csv","Jazzy James","3.1.3","3.1.5.wav","4.1.5.wav","4.1.3.wav","0","0","space","0","NA","350","25193","350","NA","1475366","space","2","1024","2","48000","-16","experiment","4.1.3.wav","3.1.5.wav","4.1.5.wav","111","odd","1816305","1818824","1818324","1817587","1759523","NA","1815305","1819565","754","NA","NA","1815302","1819915","1804947","1815302","1476123","NA","1815305","756","New experiment","NA","0","0","0","yes","1024"
"undefined","undefined","undefined","undefined","black","no","legacy","0","uniform","undefined","undefined","undefined","57","57","115","57","57","NA","57","57","0","0","0","57","57","0","57","0","NA","57","0","Tue 09 Jul 2019 12:12:12 PM PDT","500","1000","The main experiment item","yes","NA","ABX_v3.osexp","/home/ubuntu/Desktop/panara","no","no","mono","no","18","no","white","no","yes","768","3","53","/home/ubuntu/Desktop/panara/subject-111.csv","Jazzy James","3.1.3","3.1.3.wav","1.1.3.wav","1.1.5.wav","0","0","space","0","NA","691","25193","691","NA","1475366","space","2","1024","2","48000","-16","experiment","3.1.3.wav","1.1.5.wav","1.1.3.wav","111","odd","1821077","1823638","1823138","1822331","1759523","NA","1820076","1824423","754","NA","NA","1820074","1825114","1804947","1820074","1476123","NA","1820077","756","New experiment","NA","0","0","0","yes","1024"
"undefined","undefined","undefined","undefined","black","no","legacy","0","uniform","undefined","undefined","undefined","58","58","117","58","58","NA","58","58","0","0","0","58","58","0","58","0","NA","58","0","Tue 09 Jul 2019 12:12:12 PM PDT","500","1000","The main experiment item","yes","NA","ABX_v3.osexp","/home/ubuntu/Desktop/panara","no","no","mono","no","18","no","white","no","yes","768","4","53","/home/ubuntu/Desktop/panara/subject-111.csv","Jazzy James","3.1.3","3.1.1.wav","1.1.1.wav","1.1.3.wav","0","0","space","0","NA","459","25193","459","NA","1475366","space","2","1024","2","48000","-16","experiment","3.1.1.wav","1.1.3.wav","1.1.1.wav","111","odd","1826279","1828823","1828323","1827535","1759523","NA","1825279","1829606","754","NA","NA","1825277","1830066","1804947","1825277","1476123","NA","1825279","756","New experiment","NA","0","0","0","yes","1024"
"undefined","undefined","undefined","undefined","black","no","legacy","0","uniform","undefined","undefined","undefined","59","59","119","59","59","NA","59","59","0","0","0","59","59","0","59","0","NA","59","0","Tue 09 Jul 2019 12:12:12 PM PDT","500","1000","The main experiment item","yes","NA","ABX_v3.osexp","/home/ubuntu/Desktop/panara","no","no","mono","no","18","no","white","no","yes","768","5","53","/home/ubuntu/Desktop/panara/subject-111.csv","Jazzy James","3.1.3","3.1.1.wav","4.1.1.wav","4.1.3.wav","0","0","space","0","NA","423","25193","423","NA","1475366","space","2","1024","2","48000","-16","experiment","3.1.1.wav","4.1.3.wav","4.1.1.wav","111","odd","1831246","1833753","1833253","1832499","1759523","NA","1830246","1834475","754","NA","NA","1830243","1834899","1804947","1830243","1476123","NA","1830246","756","New experiment","NA","0","0","0","yes","1024"
"undefined","undefined","undefined","undefined","black","no","legacy","0","uniform","undefined","undefined","undefined","60","60","121","60","60","NA","60","60","0","0","0","60","60","0","60","0","NA","60","0","Tue 09 Jul 2019 12:12:12 PM PDT","500","1000","The main experiment item","yes","NA","ABX_v3.osexp","/home/ubuntu/Desktop/panara","yes","no","mono","no","18","no","white","no","yes","768","6","53","/home/ubuntu/Desktop/panara/subject-111.csv","Jazzy James","3.1.3","3.2.3.wav","3.2.1.wav","3.1.1.wav","0","1","space","1","NA","538","25193","538","NA","1475366","space","2","1024","2","48000","-16","experiment","3.1.1.wav","3.2.3.wav","3.2.1.wav","111","odd","1836097","1838616","1838116","1837363","1759523","NA","1835097","1839368","754","NA","NA","1835095","1839907","1804947","1835094","1476123","NA","1835097","756","New experiment","NA","0","0","0","yes","1024"
"undefined","undefined","undefined","undefined","black","no","legacy","0","uniform","undefined","undefined","undefined","61","61","123","61","61","NA","61","61","0","0","0","61","61","0","61","0","NA","61","0","Tue 09 Jul 2019 12:12:12 PM PDT","500","1000","The main experiment item","yes","NA","ABX_v3.osexp","/home/ubuntu/Desktop/panara","no","no","mono","no","18","no","white","no","yes","768","7","53","/home/ubuntu/Desktop/panara/subject-111.csv","Jazzy James","3.1.3","4.1.2.wav","2.1.2.wav","2.1.4.wav","0","0","space","0","NA","977","25193","977","NA","1475366","space","2","1024","2","48000","-16","experiment","4.1.2.wav","2.1.4.wav","2.1.2.wav","111","odd","1841090","1843548","1843048","1842312","1759523","NA","1840089","1844304","754","NA","NA","1840087","1845281","1804947","1840087","1476123","NA","1840090","756","New experiment","NA","0","0","0","yes","1024"
"undefined","undefined","undefined","undefined","black","no","legacy","0","uniform","undefined","undefined","undefined","62","62","125","62","62","NA","62","62","0","0","0","62","62","0","62","0","NA","62","0","Tue 09 Jul 2019 12:12:12 PM PDT","500","1000","The main experiment item","yes","NA","ABX_v3.osexp","/home/ubuntu/Desktop/panara","yes","no","mono","no","18","no","white","no","yes","768","8","53","/home/ubuntu/Desktop/panara/subject-111.csv","Jazzy James","3.1.3","4.1.4.wav","2.1.4.wav","2.1.2.wav","0","0","space","0","NA","325","25193","325","NA","1475366","space","2","1024","2","48000","-16","experiment","2.1.2.wav","4.1.4.wav","2.1.4.wav","111","odd","1846452","1848963","1848463","1847687","1759523","NA","1845452","1849715","754","NA","NA","1845449","1850041","1804947","1845449","1476123","NA","1845452","756","New experiment","NA","0","0","0","yes","1024"
"undefined","undefined","undefined","undefined","black","no","legacy","0","uniform","undefined","undefined","undefined","63","63","127","63","63","NA","63","63","0","0","0","63","63","0","63","0","NA","63","0","Tue 09 Jul 2019 12:12:12 PM PDT","500","1000","The main experiment item","yes","NA","ABX_v3.osexp","/home/ubuntu/Desktop/panara","no","no","mono","no","18","no","white","no","yes","768","9","53","/home/ubuntu/Desktop/panara/subject-111.csv","Jazzy James","3.1.3","3.2.1.wav","4.2.1.wav","4.2.3.wav","0","0","space","0","NA","293","25193","293","NA","1475366","space","2","1024","2","48000","-16","experiment","3.2.1.wav","4.2.3.wav","4.2.1.wav","111","odd","1851224","1853702","1853202","1852481","1759523","NA","1850224","1854452","754","NA","NA","1850221","1854746","1804947","1850221","1476123","NA","1850224","756","New experiment","NA","0","0","0","yes","1024"
"undefined","undefined","undefined","undefined","black","no","legacy","0","uniform","undefined","undefined","undefined","64","64","129","64","64","NA","64","64","0","0","0","64","64","0","64","0","NA","64","0","Tue 09 Jul 2019 12:12:12 PM PDT","500","1000","The main experiment item","yes","NA","ABX_v3.osexp","/home/ubuntu/Desktop/panara","no","no","mono","no","18","no","white","no","yes","768","10","53","/home/ubuntu/Desktop/panara/subject-111.csv","Jazzy James","3.1.3","4.1.1.wav","3.1.1.wav","3.1.3.wav","0","0","space","0","NA","134","25193","134","NA","1475366","space","2","1024","2","48000","-16","experiment","4.1.1.wav","3.1.3.wav","3.1.1.wav","111","odd","1855921","1858425","1857925","1857175","1759523","NA","1854921","1859178","754","NA","NA","1854918","1859313","1804947","1854918","1476123","NA","1854921","756","New experiment","NA","0","0","0","yes","1024"
"undefined","undefined","undefined","undefined","black","no","legacy","0","uniform","undefined","undefined","undefined","65","65","131","65","65","NA","65","65","0","0","0","65","65","0","65","0","NA","65","0","Tue 09 Jul 2019 12:12:12 PM PDT","500","1000","The main experiment item","yes","NA","ABX_v3.osexp","/home/ubuntu/Desktop/panara","yes","no","mono","no","18","no","white","no","yes","768","11","53","/home/ubuntu/Desktop/panara/subject-111.csv","Jazzy James","3.1.3","4.2.5.wav","4.2.3.wav","4.1.3.wav","0","0","space","0","NA","1422","25193","1422","NA","1475366","space","2","1024","2","48000","-16","experiment","4.1.3.wav","4.2.5.wav","4.2.3.wav","111","odd","1860497","1862983","1862483","1861729","1759523","NA","1859497","1863738","754","NA","NA","1859495","1865160","1804947","1859495","1476123","NA","1859497","756","New experiment","NA","0","0","0","yes","1024"
"undefined","undefined","undefined","undefined","black","no","legacy","0","uniform","undefined","undefined","undefined","66","66","133","66","66","NA","66","66","0","0","0","66","66","0","66","0","NA","66","0","Tue 09 Jul 2019 12:12:12 PM PDT","500","1000","The main experiment item","yes","NA","ABX_v3.osexp","/home/ubuntu/Desktop/panara","no","no","mono","no","18","no","white","no","yes","768","12","53","/home/ubuntu/Desktop/panara/subject-111.csv","Jazzy James","3.1.3","3.2.1.wav","3.2.3.wav","4.2.3.wav","0","1","space","1","NA","687","25193","687","NA","1475366","space","2","1024","2","48000","-16","experiment","3.2.1.wav","4.2.3.wav","3.2.3.wav","111","odd","1866320","1868813","1868313","1867564","1759523","NA","1865320","1869568","754","NA","NA","1865318","1870256","1804947","1865318","1476123","NA","1865320","756","New experiment","NA","0","0","0","yes","1024"
"undefined","undefined","undefined","undefined","black","no","legacy","0","uniform","undefined","undefined","undefined","67","67","135","67","67","NA","67","67","0","0","0","67","67","0","67","0","NA","67","0","Tue 09 Jul 2019 12:12:12 PM PDT","500","1000","The main experiment item","yes","NA","ABX_v3.osexp","/home/ubuntu/Desktop/panara","no","no","mono","no","18","no","white","no","yes","768","13","53","/home/ubuntu/Desktop/panara/subject-111.csv","Jazzy James","3.1.3","2.1.1.wav","4.1.1.wav","4.1.3.wav","0","0","space","0","NA","413","25193","413","NA","1475366","space","2","1024","2","48000","-16","experiment","2.1.1.wav","4.1.3.wav","4.1.1.wav","111","odd","1871406","1873877","1873377","1872653","1759523","NA","1870406","1874618","754","NA","NA","1870403","1875032","1804947","1870403","1476123","NA","1870406","756","New experiment","NA","0","0","0","yes","1024"
"undefined","undefined","undefined","undefined","black","no","legacy","0","uniform","undefined","undefined","undefined","68","68","137","68","68","NA","68","68","0","0","0","68","68","0","68","0","NA","68","0","Tue 09 Jul 2019 12:12:12 PM PDT","500","1000","The main experiment item","yes","NA","ABX_v3.osexp","/home/ubuntu/Desktop/panara","no","no","mono","no","18","no","white","no","yes","768","14","53","/home/ubuntu/Desktop/panara/subject-111.csv","Jazzy James","3.1.3","3.1.2.wav","1.1.2.wav","1.1.4.wav","0","0","space","0","NA","388","25193","388","NA","1475366","space","2","1024","2","48000","-16","experiment","3.1.2.wav","1.1.4.wav","1.1.2.wav","111","odd","1876200","1878806","1878306","1877497","1759523","NA","1875200","1879588","754","NA","NA","1875197","1879977","1804947","1875197","1476123","NA","1875200","756","New experiment","NA","0","0","0","yes","1024"
"undefined","undefined","undefined","undefined","black","no","legacy","0","uniform","undefined","undefined","undefined","69","69","139","69","69","NA","69","69","0","0","0","69","69","0","69","0","NA","69","0","Tue 09 Jul 2019 12:12:12 PM PDT","500","1000","The main experiment item","yes","NA","ABX_v3.osexp","/home/ubuntu/Desktop/panara","no","no","mono","no","18","no","white","no","yes","768","15","53","/home/ubuntu/Desktop/panara/subject-111.csv","Jazzy James","3.1.3","4.1.2.wav","4.1.4.wav","2.1.4.wav","0","1","space","1","NA","1539","25193","1539","NA","1475366","space","2","1024","2","48000","-16","experiment","4.1.2.wav","2.1.4.wav","4.1.4.wav","111","odd","1881149","1883610","1883110","1882388","1759523","NA","1880149","1884357","754","NA","NA","1880147","1885896","1804947","1880147","1476123","NA","1880149","756","New experiment","NA","0","0","0","yes","1024"
"undefined","undefined","undefined","undefined","black","no","legacy","0","uniform","undefined","undefined","undefined","70","70","141","70","70","NA","70","70","0","0","0","70","70","0","70","0","NA","70","0","Tue 09 Jul 2019 12:12:12 PM PDT","500","1000","The main experiment item","yes","NA","ABX_v3.osexp","/home/ubuntu/Desktop/panara","no","no","mono","no","18","no","white","no","yes","768","16","53","/home/ubuntu/Desktop/panara/subject-111.csv","Jazzy James","3.1.3","3.1.3.wav","3.1.5.wav","4.1.5.wav","0","1","space","1","NA","1191","25193","1191","NA","1475366","space","2","1024","2","48000","-16","experiment","3.1.3.wav","4.1.5.wav","3.1.5.wav","111","odd","1887047","1889570","1889070","1888291","1759523","NA","1886047","1890296","754","NA","NA","1886045","1891488","1804947","1886045","1476123","NA","1886047","756","New experiment","NA","0","0","0","yes","1024"
"undefined","undefined","undefined","undefined","black","no","legacy","0","uniform","undefined","undefined","undefined","71","71","143","71","71","NA","71","71","0","0","0","71","71","0","71","0","NA","71","0","Tue 09 Jul 2019 12:12:12 PM PDT","500","1000","The main experiment item","yes","NA","ABX_v3.osexp","/home/ubuntu/Desktop/panara","yes","no","mono","no","18","no","white","no","yes","768","17","53","/home/ubuntu/Desktop/panara/subject-111.csv","Jazzy James","3.1.3","1.1.3.wav","1.1.1.wav","1.2.1.wav","0","1","space","1","NA","1870","25193","1870","NA","1475366","space","2","1024","2","48000","-16","experiment","1.2.1.wav","1.1.3.wav","1.1.1.wav","111","odd","1892659","1895231","1894731","1893952","1759523","NA","1891658","1895993","754","NA","NA","1891656","1897864","1804947","1891656","1476123","NA","1891659","756","New experiment","NA","0","0","0","yes","1024"
"undefined","undefined","undefined","undefined","black","no","legacy","0","uniform","undefined","undefined","undefined","72","72","145","72","72","NA","72","72","0","0","0","72","72","0","72","0","NA","72","0","Tue 09 Jul 2019 12:12:12 PM PDT","500","1000","The main experiment item","yes","NA","ABX_v3.osexp","/home/ubuntu/Desktop/panara","no","no","mono","no","18","no","white","no","yes","768","18","53","/home/ubuntu/Desktop/panara/subject-111.csv","Jazzy James","3.1.3","2.1.2.wav","1.1.2.wav","1.1.4.wav","0","0","space","0","NA","521","25193","521","NA","1475366","space","2","1024","2","48000","-16","experiment","2.1.2.wav","1.1.4.wav","1.1.2.wav","111","odd","1899024","1901565","1901065","1900258","1759523","NA","1898024","1902350","754","NA","NA","1898022","1902872","1804947","1898022","1476123","NA","1898024","756","New experiment","NA","0","0","0","yes","1024"
"undefined","undefined","undefined","undefined","black","no","legacy","0","uniform","undefined","undefined","undefined","73","73","147","73","73","NA","73","73","0","0","0","73","73","0","73","0","NA","73","0","Tue 09 Jul 2019 12:12:12 PM PDT","500","1000","The main experiment item","yes","NA","ABX_v3.osexp","/home/ubuntu/Desktop/panara","yes","no","mono","no","18","no","white","no","yes","768","19","53","/home/ubuntu/Desktop/panara/subject-111.csv","Jazzy James","3.1.3","2.2.4.wav","2.1.4.wav","2.1.2.wav","0","1","space","1","NA","483","25193","483","NA","1475366","space","2","1024","2","48000","-16","experiment","2.1.2.wav","2.2.4.wav","2.1.4.wav","111","odd","1904043","1906515","1906015","1905264","1759523","NA","1903042","1907268","754","NA","NA","1903040","1907751","1804947","1903040","1476123","NA","1903043","756","New experiment","NA","0","0","0","yes","1024"
"undefined","undefined","undefined","undefined","black","no","legacy","0","uniform","undefined","undefined","undefined","74","74","149","74","74","NA","74","74","0","0","0","74","74","0","74","0","NA","74","0","Tue 09 Jul 2019 12:12:12 PM PDT","500","1000","The main experiment item","yes","NA","ABX_v3.osexp","/home/ubuntu/Desktop/panara","no","no","mono","no","18","no","white","no","yes","768","20","53","/home/ubuntu/Desktop/panara/subject-111.csv","Jazzy James","3.1.3","1.1.1.wav","1.1.3.wav","3.1.3.wav","0","1","space","1","NA","786","25193","786","NA","1475366","space","2","1024","2","48000","-16","experiment","1.1.1.wav","3.1.3.wav","1.1.3.wav","111","odd","1908911","1911529","1911029","1910228","1759523","NA","1907911","1912283","754","NA","NA","1907908","1913070","1804947","1907908","1476123","NA","1907911","756","New experiment","NA","0","0","0","yes","1024"
"undefined","undefined","undefined","undefined","black","no","legacy","0","uniform","undefined","undefined","undefined","75","75","151","75","75","NA","75","75","0","0","0","75","75","0","75","0","NA","75","0","Tue 09 Jul 2019 12:12:12 PM PDT","500","1000","The main experiment item","yes","NA","ABX_v3.osexp","/home/ubuntu/Desktop/panara","yes","no","mono","no","18","no","white","no","yes","768","21","53","/home/ubuntu/Desktop/panara/subject-111.csv","Jazzy James","3.1.3","1.1.5.wav","1.1.3.wav","2.1.3.wav","0","1","space","1","NA","369","25193","369","NA","1475366","space","2","1024","2","48000","-16","experiment","2.1.3.wav","1.1.5.wav","1.1.3.wav","111","odd","1914238","1916819","1916319","1915511","1759523","NA","1913238","1917573","754","NA","NA","1913235","1917943","1804947","1913235","1476123","NA","1913238","756","New experiment","NA","0","0","0","yes","1024"
"undefined","undefined","undefined","undefined","black","no","legacy","0","uniform","undefined","undefined","undefined","76","76","153","76","76","NA","76","76","0","0","0","76","76","0","76","0","NA","76","0","Tue 09 Jul 2019 12:12:12 PM PDT","500","1000","The main experiment item","yes","NA","ABX_v3.osexp","/home/ubuntu/Desktop/panara","no","no","mono","no","18","no","white","no","yes","768","22","53","/home/ubuntu/Desktop/panara/subject-111.csv","Jazzy James","3.1.3","4.1.1.wav","2.1.1.wav","2.1.3.wav","0","0","space","0","NA","471","25193","471","NA","1475366","space","2","1024","2","48000","-16","experiment","4.1.1.wav","2.1.3.wav","2.1.1.wav","111","odd","1919105","1921611","1921111","1920361","1759523","NA","1918105","1922359","754","NA","NA","1918102","1922830","1804947","1918102","1476123","NA","1918105","756","New experiment","NA","0","0","0","yes","1024"
"undefined","undefined","undefined","undefined","black","no","legacy","0","uniform","undefined","undefined","undefined","77","77","155","77","77","NA","77","77","0","0","0","77","77","0","77","0","NA","77","0","Tue 09 Jul 2019 12:12:12 PM PDT","500","1000","The main experiment item","yes","NA","ABX_v3.osexp","/home/ubuntu/Desktop/panara","yes","no","mono","no","18","no","white","no","yes","768","23","53","/home/ubuntu/Desktop/panara/subject-111.csv","Jazzy James","3.1.3","1.2.3.wav","2.2.3.wav","2.2.1.wav","0","0","space","0","NA","375","25193","375","NA","1475366","space","2","1024","2","48000","-16","experiment","2.2.1.wav","1.2.3.wav","2.2.3.wav","111","odd","1923954","1926468","1925968","1925244","1759523","NA","1922954","1927222","754","NA","NA","1922952","1927598","1804947","1922952","1476123","NA","1922954","756","New experiment","NA","0","0","0","yes","1024"
"undefined","undefined","undefined","undefined","black","no","legacy","0","uniform","undefined","undefined","undefined","78","78","157","78","78","NA","78","78","0","0","0","78","78","0","78","0","NA","78","0","Tue 09 Jul 2019 12:12:12 PM PDT","500","1000","The main experiment item","yes","NA","ABX_v3.osexp","/home/ubuntu/Desktop/panara","yes","no","mono","no","18","no","white","no","yes","768","24","53","/home/ubuntu/Desktop/panara/subject-111.csv","Jazzy James","3.1.3","3.2.4.wav","3.1.4.wav","3.1.2.wav","0","1","space","1","NA","3112","25193","3112","NA","1475366","space","2","1024","2","48000","-16","experiment","3.1.2.wav","3.2.4.wav","3.1.4.wav","111","odd","1928789","1931326","1930826","1930046","1759523","NA","1927789","1932108","754","NA","NA","1927787","1935220","1804947","1927787","1476123","NA","1927789","756","New experiment","NA","0","0","0","yes","1024"
"undefined","undefined","undefined","undefined","black","no","legacy","0","uniform","undefined","undefined","undefined","79","79","159","79","79","NA","79","79","0","0","0","79","79","0","79","0","NA","79","0","Tue 09 Jul 2019 12:12:12 PM PDT","500","1000","The main experiment item","yes","NA","ABX_v3.osexp","/home/ubuntu/Desktop/panara","no","no","mono","no","18","no","white","no","yes","768","25","53","/home/ubuntu/Desktop/panara/subject-111.csv","Jazzy James","3.1.3","1.2.2.wav","1.2.4.wav","3.2.4.wav","0","1","space","1","NA","613","25193","613","NA","1475366","space","2","1024","2","48000","-16","experiment","1.2.2.wav","3.2.4.wav","1.2.4.wav","111","odd","1936426","1938941","1938441","1937695","1759523","NA","1935425","1939694","754","NA","NA","1935423","1940308","1804947","1935423","1476123","NA","1935426","756","New experiment","NA","0","0","0","yes","1024"
"undefined","undefined","undefined","undefined","black","no","legacy","0","uniform","undefined","undefined","undefined","80","80","161","80","80","NA","80","80","0","0","0","80","80","0","80","0","NA","80","0","Tue 09 Jul 2019 12:12:12 PM PDT","500","1000","The main experiment item","yes","NA","ABX_v3.osexp","/home/ubuntu/Desktop/panara","no","no","mono","no","18","no","white","no","yes","768","26","53","/home/ubuntu/Desktop/panara/subject-111.csv","Jazzy James","3.1.3","3.2.3.wav","3.1.3.wav","3.1.5.wav","0","1","space","1","NA","1182","25193","1182","NA","1475366","space","2","1024","2","48000","-16","experiment","3.2.3.wav","3.1.5.wav","3.1.3.wav","111","odd","1941484","1943974","1943474","1942721","1759523","NA","1940484","1944758","754","NA","NA","1940482","1945941","1804947","1940482","1476123","NA","1940484","756","New experiment","NA","0","0","0","yes","1024"
"undefined","undefined","undefined","undefined","black","no","legacy","0","uniform","undefined","undefined","undefined","81","81","163","81","81","NA","81","81","0","0","0","81","81","0","81","0","NA","81","0","Tue 09 Jul 2019 12:12:12 PM PDT","500","1000","The main experiment item","yes","NA","ABX_v3.osexp","/home/ubuntu/Desktop/panara","yes","no","mono","no","18","no","white","no","yes","768","27","53","/home/ubuntu/Desktop/panara/subject-111.csv","Jazzy James","3.1.3","2.2.3.wav","1.2.3.wav","1.2.1.wav","0","0","space","0","NA","265","25193","265","NA","1475366","space","2","1024","2","48000","-16","experiment","1.2.1.wav","2.2.3.wav","1.2.3.wav","111","odd","1947125","1949628","1949128","1948348","1759523","NA","1946125","1950411","754","NA","NA","1946122","1950676","1804947","1946122","1476123","NA","1946125","756","New experiment","NA","0","0","0","yes","1024"
"undefined","undefined","undefined","undefined","black","no","legacy","0","uniform","undefined","undefined","undefined","82","82","165","82","82","NA","82","82","0","0","0","82","82","0","82","0","NA","82","0","Tue 09 Jul 2019 12:12:12 PM PDT","500","1000","The main experiment item","yes","NA","ABX_v3.osexp","/home/ubuntu/Desktop/panara","no","no","mono","no","18","no","white","no","yes","768","28","53","/home/ubuntu/Desktop/panara/subject-111.csv","Jazzy James","3.1.3","3.2.3.wav","1.2.3.wav","1.2.5.wav","0","0","space","0","NA","417","25193","417","NA","1475366","space","2","1024","2","48000","-16","experiment","3.2.3.wav","1.2.5.wav","1.2.3.wav","111","odd","1951826","1954348","1953848","1953069","1759523","NA","1950826","1955130","754","NA","NA","1950824","1955548","1804947","1950824","1476123","NA","1950826","756","New experiment","NA","0","0","0","yes","1024"
"undefined","undefined","undefined","undefined","black","no","legacy","0","uniform","undefined","undefined","undefined","83","83","167","83","83","NA","83","83","0","0","0","83","83","0","83","0","NA","83","0","Tue 09 Jul 2019 12:12:12 PM PDT","500","1000","The main experiment item","yes","NA","ABX_v3.osexp","/home/ubuntu/Desktop/panara","no","no","mono","no","18","no","white","no","yes","768","29","53","/home/ubuntu/Desktop/panara/subject-111.csv","Jazzy James","3.1.3","1.2.2.wav","2.2.2.wav","2.2.4.wav","0","0","space","0","NA","386","25193","386","NA","1475366","space","2","1024","2","48000","-16","experiment","1.2.2.wav","2.2.4.wav","2.2.2.wav","111","odd","1956710","1959213","1958713","1957990","1759523","NA","1955709","1959960","754","NA","NA","1955706","1960347","1804947","1955706","1476123","NA","1955710","756","New experiment","NA","0","0","0","yes","1024"
"undefined","undefined","undefined","undefined","black","no","legacy","0","uniform","undefined","undefined","undefined","84","84","169","84","84","NA","84","84","0","0","0","84","84","0","84","0","NA","84","0","Tue 09 Jul 2019 12:12:12 PM PDT","500","1000","The main experiment item","yes","NA","ABX_v3.osexp","/home/ubuntu/Desktop/panara","no","no","mono","no","18","no","white","no","yes","768","30","53","/home/ubuntu/Desktop/panara/subject-111.csv","Jazzy James","3.1.3","1.1.3.wav","1.1.5.wav","2.1.5.wav","0","1","space","1","NA","467","25193","467","NA","1475366","space","2","1024","2","48000","-16","experiment","1.1.3.wav","2.1.5.wav","1.1.5.wav","111","odd","1961533","1964125","1963625","1962847","1759523","NA","1960533","1964879","754","NA","NA","1960531","1965346","1804947","1960530","1476123","NA","1960533","756","New experiment","NA","0","0","0","yes","1024"
"undefined","undefined","undefined","undefined","black","no","legacy","0","uniform","undefined","undefined","undefined","85","85","171","85","85","NA","85","85","0","0","0","85","85","0","85","0","NA","85","0","Tue 09 Jul 2019 12:12:12 PM PDT","500","1000","The main experiment item","yes","NA","ABX_v3.osexp","/home/ubuntu/Desktop/panara","yes","no","mono","no","18","no","white","no","yes","768","31","53","/home/ubuntu/Desktop/panara/subject-111.csv","Jazzy James","3.1.3","3.2.3.wav","1.2.3.wav","1.2.1.wav","0","0","space","0","NA","547","25193","547","NA","1475366","space","2","1024","2","48000","-16","experiment","1.2.1.wav","3.2.3.wav","1.2.3.wav","111","odd","1966504","1969040","1968540","1967759","1759523","NA","1965504","1969822","754","NA","NA","1965501","1970370","1804947","1965501","1476123","NA","1965504","756","New experiment","NA","0","0","0","yes","1024"
"undefined","undefined","undefined","undefined","black","no","legacy","0","uniform","undefined","undefined","undefined","86","86","173","86","86","NA","86","86","0","0","0","86","86","0","86","0","NA","86","0","Tue 09 Jul 2019 12:12:12 PM PDT","500","1000","The main experiment item","yes","NA","ABX_v3.osexp","/home/ubuntu/Desktop/panara","yes","no","mono","no","18","no","white","no","yes","768","32","53","/home/ubuntu/Desktop/panara/subject-111.csv","Jazzy James","3.1.3","4.2.4.wav","4.2.2.wav","4.1.2.wav","0","0","space","0","NA","245","25193","245","NA","1475366","space","2","1024","2","48000","-16","experiment","4.1.2.wav","4.2.4.wav","4.2.2.wav","111","odd","1971529","1974016","1973516","1972795","1759523","NA","1970529","1974772","754","NA","NA","1970526","1975018","1804947","1970526","1476123","NA","1970529","756","New experiment","NA","0","0","0","yes","1024"
"undefined","undefined","undefined","undefined","black","no","legacy","0","uniform","undefined","undefined","undefined","87","87","175","87","87","NA","87","87","0","0","0","87","87","0","87","0","NA","87","0","Tue 09 Jul 2019 12:12:12 PM PDT","500","1000","The main experiment item","yes","NA","ABX_v3.osexp","/home/ubuntu/Desktop/panara","no","no","mono","no","18","no","white","no","yes","768","33","53","/home/ubuntu/Desktop/panara/subject-111.csv","Jazzy James","3.1.3","1.1.3.wav","2.1.3.wav","2.1.5.wav","0","1","space","1","NA","1587","25193","1587","NA","1475366","space","2","1024","2","48000","-16","experiment","1.1.3.wav","2.1.5.wav","2.1.3.wav","111","odd","1976167","1978729","1978229","1977487","1759523","NA","1975166","1979485","754","NA","NA","1975164","1981073","1804947","1975164","1476123","NA","1975167","756","New experiment","NA","0","0","0","yes","1024"
"undefined","undefined","undefined","undefined","black","no","legacy","0","uniform","undefined","undefined","undefined","88","88","177","88","88","NA","88","88","0","0","0","88","88","0","88","0","NA","88","0","Tue 09 Jul 2019 12:12:12 PM PDT","500","1000","The main experiment item","yes","NA","ABX_v3.osexp","/home/ubuntu/Desktop/panara","no","no","mono","no","18","no","white","no","yes","768","34","53","/home/ubuntu/Desktop/panara/subject-111.csv","Jazzy James","3.1.3","4.2.1.wav","3.2.1.wav","3.2.3.wav","0","0","space","0","NA","579","25193","579","NA","1475366","space","2","1024","2","48000","-16","experiment","4.2.1.wav","3.2.3.wav","3.2.1.wav","111","odd","1982250","1984733","1984233","1983481","1759523","NA","1981250","1985485","754","NA","NA","1981248","1986065","1804947","1981247","1476123","NA","1981250","756","New experiment","NA","0","0","0","yes","1024"
"undefined","undefined","undefined","undefined","black","no","legacy","0","uniform","undefined","undefined","undefined","89","89","179","89","89","NA","89","89","0","0","0","89","89","0","89","0","NA","89","0","Tue 09 Jul 2019 12:12:12 PM PDT","500","1000","The main experiment item","yes","NA","ABX_v3.osexp","/home/ubuntu/Desktop/panara","yes","no","mono","no","18","no","white","no","yes","768","35","53","/home/ubuntu/Desktop/panara/subject-111.csv","Jazzy James","3.1.3","4.2.5.wav","4.2.3.wav","2.2.3.wav","0","1","space","1","NA","738","25193","738","NA","1475366","space","2","1024","2","48000","-16","experiment","2.2.3.wav","4.2.5.wav","4.2.3.wav","111","odd","1987190","1989681","1989181","1988430","1759523","NA","1986190","1990406","754","NA","NA","1986188","1991144","1804947","1986188","1476123","NA","1986190","756","New experiment","NA","0","0","0","yes","1024"
"undefined","undefined","undefined","undefined","black","no","legacy","0","uniform","undefined","undefined","undefined","90","90","181","90","90","NA","90","90","0","0","0","90","90","0","90","0","NA","90","0","Tue 09 Jul 2019 12:12:12 PM PDT","500","1000","The main experiment item","yes","NA","ABX_v3.osexp","/home/ubuntu/Desktop/panara","no","no","mono","no","18","no","white","no","yes","768","36","53","/home/ubuntu/Desktop/panara/subject-111.csv","Jazzy James","3.1.3","2.2.1.wav","1.2.1.wav","1.2.3.wav","0","0","space","0","NA","196","25193","196","NA","1475366","space","2","1024","2","48000","-16","experiment","2.2.1.wav","1.2.3.wav","1.2.1.wav","111","odd","1992313","1994822","1994322","1993549","1759523","NA","1991313","1995604","754","NA","NA","1991310","1995801","1804947","1991310","1476123","NA","1991313","756","New experiment","NA","0","0","0","yes","1024"
"undefined","undefined","undefined","undefined","black","no","legacy","0","uniform","undefined","undefined","undefined","91","91","183","91","91","NA","91","91","0","0","0","91","91","0","91","0","NA","91","0","Tue 09 Jul 2019 12:12:12 PM PDT","500","1000","The main experiment item","yes","NA","ABX_v3.osexp","/home/ubuntu/Desktop/panara","yes","no","mono","no","18","no","white","no","yes","768","37","53","/home/ubuntu/Desktop/panara/subject-111.csv","Jazzy James","3.1.3","4.1.4.wav","3.1.4.wav","3.1.2.wav","0","0","space","0","NA","658","25193","658","NA","1475366","space","2","1024","2","48000","-16","experiment","3.1.2.wav","4.1.4.wav","3.1.4.wav","111","odd","1996952","1999465","1998965","1998185","1759523","NA","1995952","2000246","754","NA","NA","1995950","2000905","1804947","1995950","1476123","NA","1995952","756","New experiment","NA","0","0","0","yes","1024"
"undefined","undefined","undefined","undefined","black","no","legacy","0","uniform","undefined","undefined","undefined","92","92","185","92","92","NA","92","92","0","0","0","92","92","0","92","0","NA","92","0","Tue 09 Jul 2019 12:12:12 PM PDT","500","1000","The main experiment item","yes","NA","ABX_v3.osexp","/home/ubuntu/Desktop/panara","yes","no","mono","no","18","no","white","no","yes","768","38","53","/home/ubuntu/Desktop/panara/subject-111.csv","Jazzy James","3.1.3","4.2.5.wav","2.2.5.wav","2.2.3.wav","0","0","space","0","NA","431","25193","431","NA","1475366","space","2","1024","2","48000","-16","experiment","2.2.3.wav","4.2.5.wav","2.2.5.wav","111","odd","2002060","2004493","2003993","2003278","1759523","NA","2001059","2005217","754","NA","NA","2001057","2005648","1804947","2001057","1476123","NA","2001060","756","New experiment","NA","0","0","0","yes","1024"
"undefined","undefined","undefined","undefined","black","no","legacy","0","uniform","undefined","undefined","undefined","93","93","187","93","93","NA","93","93","0","0","0","93","93","0","93","0","NA","93","0","Tue 09 Jul 2019 12:12:12 PM PDT","500","1000","The main experiment item","yes","NA","ABX_v3.osexp","/home/ubuntu/Desktop/panara","yes","no","mono","no","18","no","white","no","yes","768","39","53","/home/ubuntu/Desktop/panara/subject-111.csv","Jazzy James","3.1.3","1.1.3.wav","1.1.1.wav","2.1.1.wav","0","1","space","1","NA","532","25193","532","NA","1475366","space","2","1024","2","48000","-16","experiment","2.1.1.wav","1.1.3.wav","1.1.1.wav","111","odd","2006798","2009357","2008857","2008078","1759523","NA","2005797","2010107","754","NA","NA","2005794","2010640","1804947","2005794","1476123","NA","2005798","756","New experiment","NA","0","0","0","yes","1024"
"undefined","undefined","undefined","undefined","black","no","legacy","0","uniform","undefined","undefined","undefined","94","94","189","94","94","NA","94","94","0","0","0","94","94","0","94","0","NA","94","0","Tue 09 Jul 2019 12:12:12 PM PDT","500","1000","The main experiment item","yes","NA","ABX_v3.osexp","/home/ubuntu/Desktop/panara","no","no","mono","no","18","no","white","no","yes","768","40","53","/home/ubuntu/Desktop/panara/subject-111.csv","Jazzy James","3.1.3","4.1.3.wav","2.1.3.wav","2.1.5.wav","0","0","space","0","NA","2970","25193","2970","NA","1475366","space","2","1024","2","48000","-16","experiment","4.1.3.wav","2.1.5.wav","2.1.3.wav","111","odd","2011801","2014278","2013778","2013027","1759523","NA","2010801","2015029","754","NA","NA","2010799","2017999","1804947","2010799","1476123","NA","2010801","756","New experiment","NA","0","0","0","yes","1024"
"undefined","undefined","undefined","undefined","black","no","legacy","0","uniform","undefined","undefined","undefined","95","95","191","95","95","NA","95","95","0","0","0","95","95","0","95","0","NA","95","0","Tue 09 Jul 2019 12:12:12 PM PDT","500","1000","The main experiment item","yes","NA","ABX_v3.osexp","/home/ubuntu/Desktop/panara","no","no","mono","no","18","no","white","no","yes","768","41","53","/home/ubuntu/Desktop/panara/subject-111.csv","Jazzy James","3.1.3","2.1.2.wav","2.2.2.wav","2.2.4.wav","0","1","space","1","NA","1303","25193","1303","NA","1475366","space","2","1024","2","48000","-16","experiment","2.1.2.wav","2.2.4.wav","2.2.2.wav","111","odd","2019157","2021643","2021143","2020420","1759523","NA","2018157","2022367","754","NA","NA","2018154","2023671","1804947","2018154","1476123","NA","2018157","756","New experiment","NA","0","0","0","yes","1024"
"undefined","undefined","undefined","undefined","black","no","legacy","0","uniform","undefined","undefined","undefined","96","96","193","96","96","NA","96","96","0","0","0","96","96","0","96","0","NA","96","0","Tue 09 Jul 2019 12:12:12 PM PDT","500","1000","The main experiment item","yes","NA","ABX_v3.osexp","/home/ubuntu/Desktop/panara","no","no","mono","no","18","no","white","no","yes","768","42","53","/home/ubuntu/Desktop/panara/subject-111.csv","Jazzy James","3.1.3","3.2.3.wav","4.2.3.wav","4.2.5.wav","0","0","space","0","NA","289","25193","289","NA","1475366","space","2","1024","2","48000","-16","experiment","3.2.3.wav","4.2.5.wav","4.2.3.wav","111","odd","2024837","2027345","2026845","2026095","1759523","NA","2023836","2028100","754","NA","NA","2023834","2028390","1804947","2023834","1476123","NA","2023837","756","New experiment","NA","0","0","0","yes","1024"
"undefined","undefined","undefined","undefined","black","no","legacy","0","uniform","undefined","undefined","undefined","97","97","195","97","97","NA","97","97","0","0","0","97","97","0","97","0","NA","97","0","Tue 09 Jul 2019 12:12:12 PM PDT","500","1000","The main experiment item","yes","NA","ABX_v3.osexp","/home/ubuntu/Desktop/panara","no","no","mono","no","18","no","white","no","yes","768","43","53","/home/ubuntu/Desktop/panara/subject-111.csv","Jazzy James","3.1.3","3.1.3.wav","3.1.5.wav","3.2.5.wav","0","0","space","0","NA","477","25193","477","NA","1475366","space","2","1024","2","48000","-16","experiment","3.1.3.wav","3.2.5.wav","3.1.5.wav","111","odd","2029561","2032103","2031602","2030810","1759523","NA","2028561","2032880","754","NA","NA","2028559","2033357","1804947","2028558","1476123","NA","2028561","756","New experiment","NA","0","0","0","yes","1024"
"undefined","undefined","undefined","undefined","black","no","legacy","0","uniform","undefined","undefined","undefined","98","98","197","98","98","NA","98","98","0","0","0","98","98","0","98","0","NA","98","0","Tue 09 Jul 2019 12:12:12 PM PDT","500","1000","The main experiment item","yes","NA","ABX_v3.osexp","/home/ubuntu/Desktop/panara","no","no","mono","no","18","no","white","no","yes","768","44","53","/home/ubuntu/Desktop/panara/subject-111.csv","Jazzy James","3.1.3","4.2.1.wav","4.2.3.wav","4.1.3.wav","0","0","space","0","NA","541","25193","541","NA","1475366","space","2","1024","2","48000","-16","experiment","4.2.1.wav","4.1.3.wav","4.2.3.wav","111","odd","2034522","2037002","2036502","2035750","1759523","NA","2033522","2037727","754","NA","NA","2033519","2038269","1804947","2033519","1476123","NA","2033522","756","New experiment","NA","0","0","0","yes","1024"
"undefined","undefined","undefined","undefined","black","no","legacy","0","uniform","undefined","undefined","undefined","99","99","199","99","99","NA","99","99","0","0","0","99","99","0","99","0","NA","99","0","Tue 09 Jul 2019 12:12:12 PM PDT","500","1000","The main experiment item","yes","NA","ABX_v3.osexp","/home/ubuntu/Desktop/panara","yes","no","mono","no","18","no","white","no","yes","768","45","53","/home/ubuntu/Desktop/panara/subject-111.csv","Jazzy James","3.1.3","4.2.3.wav","4.2.1.wav","4.1.1.wav","0","0","space","0","NA","503","25193","503","NA","1475366","space","2","1024","2","48000","-16","experiment","4.1.1.wav","4.2.3.wav","4.2.1.wav","111","odd","2039421","2041894","2041394","2040672","1759523","NA","2038421","2042613","754","NA","NA","2038419","2043117","1804947","2038419","1476123","NA","2038421","756","New experiment","NA","0","0","0","yes","1024"
"undefined","undefined","undefined","undefined","black","no","legacy","0","uniform","undefined","undefined","undefined","100","100","201","100","100","NA","100","100","0","0","0","100","100","0","100","0","NA","100","0","Tue 09 Jul 2019 12:12:12 PM PDT","500","1000","The main experiment item","yes","NA","ABX_v3.osexp","/home/ubuntu/Desktop/panara","yes","no","mono","no","18","no","white","no","yes","768","46","53","/home/ubuntu/Desktop/panara/subject-111.csv","Jazzy James","3.1.3","1.1.4.wav","2.1.4.wav","2.1.2.wav","0","0","space","0","NA","787","49657","787","NA","1475366","space","2","1024","2","48000","-16","experiment","2.1.2.wav","1.1.4.wav","2.1.4.wav","111","odd","2093941","2096440","2095940","2095203","2043281","NA","2092941","2097221","754","NA","NA","2043278","2098009","1804947","2043278","1476123","NA","2092941","756","New experiment","NA","0","0","0","yes","1024"
"undefined","undefined","undefined","undefined","black","no","legacy","0","uniform","undefined","undefined","undefined","101","101","203","101","101","NA","101","101","0","0","0","101","101","0","101","0","NA","101","0","Tue 09 Jul 2019 12:12:12 PM PDT","500","1000","The main experiment item","yes","NA","ABX_v3.osexp","/home/ubuntu/Desktop/panara","yes","no","mono","no","18","no","white","no","yes","768","47","53","/home/ubuntu/Desktop/panara/subject-111.csv","Jazzy James","3.1.3","2.2.5.wav","2.2.3.wav","4.2.3.wav","0","1","space","1","NA","501","49657","501","NA","1475366","space","2","1024","2","48000","-16","experiment","4.2.3.wav","2.2.5.wav","2.2.3.wav","111","odd","2099173","2101640","2101140","2100430","2043281","NA","2098173","2102388","754","NA","NA","2098170","2102890","1804947","2098170","1476123","NA","2098173","756","New experiment","NA","0","0","0","yes","1024"
"undefined","undefined","undefined","undefined","black","no","legacy","0","uniform","undefined","undefined","undefined","102","102","205","102","102","NA","102","102","0","0","0","102","102","0","102","0","NA","102","0","Tue 09 Jul 2019 12:12:12 PM PDT","500","1000","The main experiment item","yes","NA","ABX_v3.osexp","/home/ubuntu/Desktop/panara","yes","no","mono","no","18","no","white","no","yes","768","48","53","/home/ubuntu/Desktop/panara/subject-111.csv","Jazzy James","3.1.3","3.1.4.wav","3.1.2.wav","1.1.2.wav","0","1","space","1","NA","1296","49657","1296","NA","1475366","space","2","1024","2","48000","-16","experiment","1.1.2.wav","3.1.4.wav","3.1.2.wav","111","odd","2104069","2106619","2106119","2105341","2043281","NA","2103069","2107393","754","NA","NA","2103067","2108689","1804947","2103067","1476123","NA","2103069","756","New experiment","NA","0","0","0","yes","1024"
"undefined","undefined","undefined","undefined","black","no","legacy","0","uniform","undefined","undefined","undefined","103","103","207","103","103","NA","103","103","0","0","0","103","103","0","103","0","NA","103","0","Tue 09 Jul 2019 12:12:12 PM PDT","500","1000","The main experiment item","yes","NA","ABX_v3.osexp","/home/ubuntu/Desktop/panara","no","no","mono","no","18","no","white","no","yes","768","49","53","/home/ubuntu/Desktop/panara/subject-111.csv","Jazzy James","3.1.3","4.2.1.wav","4.2.3.wav","2.2.3.wav","0","1","space","1","NA","584","49657","584","NA","1475366","space","2","1024","2","48000","-16","experiment","4.2.1.wav","2.2.3.wav","4.2.3.wav","111","odd","2109853","2112336","2111836","2111091","2043281","NA","2108853","2113088","754","NA","NA","2108851","2113673","1804947","2108851","1476123","NA","2108853","756","New experiment","NA","0","0","0","yes","1024"
"undefined","undefined","undefined","undefined","black","no","legacy","0","uniform","undefined","undefined","undefined","104","104","209","104","104","NA","104","104","0","0","0","104","104","0","104","0","NA","104","0","Tue 09 Jul 2019 12:12:12 PM PDT","500","1000","The main experiment item","yes","NA","ABX_v3.osexp","/home/ubuntu/Desktop/panara","yes","no","mono","no","18","no","white","no","yes","768","50","53","/home/ubuntu/Desktop/panara/subject-111.csv","Jazzy James","3.1.3","2.1.4.wav","2.2.4.wav","2.2.2.wav","0","1","space","1","NA","883","49657","883","NA","1475366","space","2","1024","2","48000","-16","experiment","2.2.2.wav","2.1.4.wav","2.2.4.wav","111","odd","2114829","2117307","2116807","2116083","2043281","NA","2113828","2118021","754","NA","NA","2113825","2118905","1804947","2113825","1476123","NA","2113829","756","New experiment","NA","0","0","0","yes","1024"
"undefined","undefined","undefined","undefined","black","no","legacy","0","uniform","undefined","undefined","undefined","105","105","211","105","105","NA","105","105","0","0","0","105","105","0","105","0","NA","105","0","Tue 09 Jul 2019 12:12:12 PM PDT","500","1000","The main experiment item","yes","NA","ABX_v3.osexp","/home/ubuntu/Desktop/panara","yes","no","mono","no","18","no","white","no","yes","768","51","53","/home/ubuntu/Desktop/panara/subject-111.csv","Jazzy James","3.1.3","4.1.4.wav","4.1.2.wav","4.2.2.wav","0","0","space","0","NA","430","49657","430","NA","1475366","space","2","1024","2","48000","-16","experiment","4.2.2.wav","4.1.4.wav","4.1.2.wav","111","odd","2120056","2122529","2122029","2121287","2043281","NA","2119055","2123242","754","NA","NA","2119053","2123672","1804947","2119053","1476123","NA","2119056","756","New experiment","NA","0","0","0","yes","1024"
"undefined","undefined","undefined","undefined","black","no","legacy","0","uniform","undefined","undefined","undefined","106","106","213","106","106","NA","106","106","0","0","0","106","106","0","106","0","NA","106","0","Tue 09 Jul 2019 12:12:12 PM PDT","500","1000","The main experiment item","yes","NA","ABX_v3.osexp","/home/ubuntu/Desktop/panara","yes","no","mono","no","18","no","white","no","yes","768","52","53","/home/ubuntu/Desktop/panara/subject-111.csv","Jazzy James","3.1.3","4.2.5.wav","4.1.5.wav","4.1.3.wav","0","1","space","1","NA","331","49657","331","NA","1475366","space","2","1024","2","48000","-16","experiment","4.1.3.wav","4.2.5.wav","4.1.5.wav","111","odd","2124832","2127265","2126765","2126054","2043281","NA","2123832","2127979","754","NA","NA","2123830","2128311","1804947","2123830","1476123","NA","2123832","756","New experiment","NA","0","0","0","yes","1024"
"undefined","undefined","undefined","undefined","black","no","legacy","0","uniform","undefined","undefined","undefined","107","107","215","107","107","NA","107","107","0","0","0","107","107","0","107","0","NA","107","0","Tue 09 Jul 2019 12:12:12 PM PDT","500","1000","The main experiment item","yes","NA","ABX_v3.osexp","/home/ubuntu/Desktop/panara","yes","no","mono","no","18","no","white","no","yes","768","53","53","/home/ubuntu/Desktop/panara/subject-111.csv","Jazzy James","3.1.3","3.2.3.wav","3.1.3.wav","3.1.1.wav","0","1","space","1","NA","2401","49657","2401","NA","1475366","space","2","1024","2","48000","-16","experiment","3.1.1.wav","3.2.3.wav","3.1.3.wav","111","odd","2129477","2132001","2131501","2130740","2043281","NA","2128477","2132749","754","NA","NA","2128475","2135151","1804947","2128475","1476123","NA","2128477","756","New experiment","NA","0","0","0","yes","1024"
"undefined","undefined","undefined","undefined","black","no","legacy","0","uniform","undefined","undefined","undefined","108","108","217","108","108","NA","108","108","0","0","0","108","108","0","108","0","NA","108","0","Tue 09 Jul 2019 12:12:12 PM PDT","500","1000","The main experiment item","yes","NA","ABX_v3.osexp","/home/ubuntu/Desktop/panara","no","no","mono","no","18","no","white","no","yes","768","54","53","/home/ubuntu/Desktop/panara/subject-111.csv","Jazzy James","3.1.3","2.2.3.wav","2.1.3.wav","2.1.5.wav","0","1","space","1","NA","1067","49657","1067","NA","1475366","space","2","1024","2","48000","-16","experiment","2.2.3.wav","2.1.5.wav","2.1.3.wav","111","odd","2136324","2138803","2138303","2137567","2043281","NA","2135324","2139563","754","NA","NA","2135321","2140631","1804947","2135321","1476123","NA","2135324","756","New experiment","NA","0","0","0","yes","1024"
"undefined","undefined","undefined","undefined","black","no","legacy","0","uniform","undefined","undefined","undefined","109","109","219","109","109","NA","109","109","0","0","0","109","109","0","109","0","NA","109","0","Tue 09 Jul 2019 12:12:12 PM PDT","500","1000","The main experiment item","yes","NA","ABX_v3.osexp","/home/ubuntu/Desktop/panara","no","no","mono","no","18","no","white","no","yes","768","55","53","/home/ubuntu/Desktop/panara/subject-111.csv","Jazzy James","3.1.3","2.1.2.wav","4.1.2.wav","4.1.4.wav","0","1","space","1","NA","5237","49657","5237","NA","1475366","space","2","1024","2","48000","-16","experiment","2.1.2.wav","4.1.4.wav","4.1.2.wav","111","odd","2141805","2144268","2143768","2143038","2043281","NA","2140804","2145032","754","NA","NA","2140802","2150270","1804947","2140802","1476123","NA","2140805","756","New experiment","NA","0","0","0","yes","1024"
"undefined","undefined","undefined","undefined","black","no","legacy","0","uniform","undefined","undefined","undefined","110","110","221","110","110","NA","110","110","0","0","0","110","110","0","110","0","NA","110","0","Tue 09 Jul 2019 12:12:12 PM PDT","500","1000","The main experiment item","yes","NA","ABX_v3.osexp","/home/ubuntu/Desktop/panara","yes","no","mono","no","18","no","white","no","yes","768","56","53","/home/ubuntu/Desktop/panara/subject-111.csv","Jazzy James","3.1.3","3.1.3.wav","3.2.3.wav","3.2.1.wav","0","1","space","1","NA","1248","49657","1248","NA","1475366","space","2","1024","2","48000","-16","experiment","3.2.1.wav","3.1.3.wav","3.2.3.wav","111","odd","2151447","2153926","2153426","2152674","2043281","NA","2150446","2154677","754","NA","NA","2150443","2155926","1804947","2150443","1476123","NA","2150447","756","New experiment","NA","0","0","0","yes","1024"
"undefined","undefined","undefined","undefined","black","no","legacy","0","uniform","undefined","undefined","undefined","111","111","223","111","111","NA","111","111","0","0","0","111","111","0","111","0","NA","111","0","Tue 09 Jul 2019 12:12:12 PM PDT","500","1000","The main experiment item","yes","NA","ABX_v3.osexp","/home/ubuntu/Desktop/panara","no","no","mono","no","18","no","white","no","yes","768","57","53","/home/ubuntu/Desktop/panara/subject-111.csv","Jazzy James","3.1.3","4.2.3.wav","4.1.3.wav","4.1.5.wav","0","1","space","1","NA","494","49657","494","NA","1475366","space","2","1024","2","48000","-16","experiment","4.2.3.wav","4.1.5.wav","4.1.3.wav","111","odd","2157108","2159625","2159125","2158371","2043281","NA","2156107","2160351","754","NA","NA","2156105","2160846","1804947","2156105","1476123","NA","2156108","756","New experiment","NA","0","0","0","yes","1024"
