"acc","accuracy","average_response_time","avg_rt","background","bidi","canvas_backend","compensation","coordinates","correct","correct_display_selecting","correct_welcome","count_A","count_B","count_ISI","count_X","count_break","count_determine_break","count_display_listening","count_display_selecting","count_experiment","count_finished","count_getting_started","count_new_inline_script","count_new_logger","count_new_loop","count_new_sequence","count_plain_block","count_setup_breaks","count_wait_nextitem","count_welcome","datetime","delay_ISI","delay_wait_nextitem","description","disable_garbage_collection","empty_column","experiment_file","experiment_path","flip_order","font_bold","font_family","font_italic","font_size","font_underline","foreground","form_clicks","fullscreen","height","live_row","live_row_plain_block","logfile","opensesame_codename","opensesame_version","play1","play2","play3","repeat_cycle","response","response_break","response_display_selecting","response_finished","response_time","response_time_break","response_time_display_selecting","response_time_finished","response_time_welcome","response_welcome","round_decimals","sound_buf_size","sound_channels","sound_freq","sound_sample_size","start","stimA","stimB","stimX","subject_nr","subject_parity","time_A","time_B","time_ISI","time_X","time_break","time_determine_break","time_display_listening","time_display_selecting","time_experiment","time_finished","time_getting_started","time_new_inline_script","time_new_logger","time_new_loop","time_new_sequence","time_plain_block","time_setup_breaks","time_wait_nextitem","time_welcome","title","to_break","total_correct","total_response_time","total_responses","uniform_coordinates","width"
"undefined","undefined","undefined","undefined","black","no","legacy","0","uniform","undefined","undefined","undefined","0","0","1","0","0","NA","0","0","0","0","0","0","0","0","0","0","NA","0","0","Thu 06 Jun 2019 12:43:32 PM PDT","500","1000","The main experiment item","yes","NA","ABX_v3.osexp","/home/ubuntu/Desktop/panara","yes","no","mono","no","18","no","white","no","yes","768","0","0","/home/ubuntu/Desktop/panara/subject-103.csv","Jazzy James","3.1.3","2.1.4.wav","2.1.4.wav","2.1.2.wav","0","1","NA","1","NA","2024","NA","2024","NA","7508966","space","2","1024","2","48000","-16","experiment","2.1.2.wav","2.1.4.wav","2.1.4.wav","103","odd","7511161","7513649","7513149","7512394","NA","NA","7510161","7514395","1108","NA","NA","7510158","7516420","NA","7510158","7510076","NA","7510161","1110","New experiment","NA","0","0","0","yes","1024"
"undefined","undefined","undefined","undefined","black","no","legacy","0","uniform","undefined","undefined","undefined","1","1","3","1","1","NA","1","1","0","0","0","1","1","0","1","0","NA","1","0","Thu 06 Jun 2019 12:43:32 PM PDT","500","1000","The main experiment item","yes","NA","ABX_v3.osexp","/home/ubuntu/Desktop/panara","yes","no","mono","no","18","no","white","no","yes","768","1","1","/home/ubuntu/Desktop/panara/subject-103.csv","Jazzy James","3.1.3","3.1.5.wav","3.1.3.wav","3.1.3.wav","0","0","NA","0","NA","2420","NA","2420","NA","7508966","space","2","1024","2","48000","-16","experiment","3.1.3.wav","3.1.5.wav","3.1.3.wav","103","odd","7517674","7520201","7519701","7518960","NA","NA","7516674","7520959","1108","NA","NA","7516671","7523379","NA","7516671","7510076","NA","7516674","1110","New experiment","NA","0","0","0","yes","1024"
"undefined","undefined","undefined","undefined","black","no","legacy","0","uniform","undefined","undefined","undefined","2","2","5","2","2","NA","2","2","0","0","0","2","2","0","2","0","NA","2","0","Thu 06 Jun 2019 12:43:32 PM PDT","500","1000","The main experiment item","yes","NA","ABX_v3.osexp","/home/ubuntu/Desktop/panara","yes","no","mono","no","18","no","white","no","yes","768","2","2","/home/ubuntu/Desktop/panara/subject-103.csv","Jazzy James","3.1.3","1.2.3.wav","1.2.1.wav","1.2.1.wav","0","0","NA","0","NA","3844","NA","3844","NA","7508966","space","2","1024","2","48000","-16","experiment","1.2.1.wav","1.2.3.wav","1.2.1.wav","103","odd","7524548","7527109","7526609","7525837","NA","NA","7523547","7527896","1108","NA","NA","7523545","7531740","NA","7523545","7510076","NA","7523547","1110","New experiment","NA","0","0","0","yes","1024"
"undefined","undefined","undefined","undefined","black","no","legacy","0","uniform","undefined","undefined","undefined","3","3","7","3","3","NA","3","3","0","0","0","3","3","0","3","0","NA","3","0","Thu 06 Jun 2019 12:43:32 PM PDT","500","1000","The main experiment item","yes","NA","ABX_v3.osexp","/home/ubuntu/Desktop/panara","no","no","mono","no","18","no","white","no","yes","768","3","3","/home/ubuntu/Desktop/panara/subject-103.csv","Jazzy James","3.1.3","3.2.2.wav","3.2.4.wav","3.2.4.wav","0","0","NA","0","NA","2811","NA","2811","NA","7508966","space","2","1024","2","48000","-16","experiment","3.2.2.wav","3.2.4.wav","3.2.4.wav","103","odd","7532914","7535432","7534932","7534188","NA","NA","7531914","7536168","1108","NA","NA","7531912","7538980","NA","7531912","7510076","NA","7531914","1110","New experiment","NA","0","0","0","yes","1024"
"undefined","undefined","undefined","undefined","black","no","legacy","0","uniform","undefined","undefined","undefined","4","4","9","4","4","NA","4","4","0","0","0","4","4","0","4","0","NA","4","0","Thu 06 Jun 2019 12:43:32 PM PDT","500","1000","The main experiment item","yes","NA","ABX_v3.osexp","/home/ubuntu/Desktop/panara","yes","no","mono","no","18","no","white","no","yes","768","4","4","/home/ubuntu/Desktop/panara/subject-103.csv","Jazzy James","3.1.3","3.1.4.wav","3.1.4.wav","3.1.2.wav","0","0","NA","0","NA","5197","NA","5197","NA","7508966","space","2","1024","2","48000","-16","experiment","3.1.2.wav","3.1.4.wav","3.1.4.wav","103","odd","7540147","7542729","7542229","7541440","NA","NA","7539147","7543510","1108","NA","NA","7539144","7548707","NA","7539144","7510076","NA","7539147","1110","New experiment","NA","0","0","0","yes","1024"
"undefined","undefined","undefined","undefined","black","no","legacy","0","uniform","undefined","undefined","undefined","5","5","11","5","5","NA","5","5","0","0","0","5","5","0","5","0","NA","5","0","Thu 06 Jun 2019 12:43:32 PM PDT","500","1000","The main experiment item","yes","NA","ABX_v3.osexp","/home/ubuntu/Desktop/panara","yes","no","mono","no","18","no","white","no","yes","768","5","5","/home/ubuntu/Desktop/panara/subject-103.csv","Jazzy James","3.1.3","4.2.5.wav","4.2.3.wav","4.2.3.wav","0","0","NA","0","NA","1420","NA","1420","NA","7508966","space","2","1024","2","48000","-16","experiment","4.2.3.wav","4.2.5.wav","4.2.3.wav","103","odd","7549889","7552353","7551853","7551109","NA","NA","7548888","7553110","1108","NA","NA","7548885","7554531","NA","7548885","7510076","NA","7548889","1110","New experiment","NA","0","0","0","yes","1024"
"undefined","undefined","undefined","undefined","black","no","legacy","0","uniform","undefined","undefined","undefined","6","6","13","6","6","NA","6","6","0","0","0","6","6","0","6","0","NA","6","0","Thu 06 Jun 2019 12:43:32 PM PDT","500","1000","The main experiment item","yes","NA","ABX_v3.osexp","/home/ubuntu/Desktop/panara","yes","no","mono","no","18","no","white","no","yes","768","6","6","/home/ubuntu/Desktop/panara/subject-103.csv","Jazzy James","3.1.3","4.1.3.wav","4.1.1.wav","4.1.1.wav","0","1","NA","1","NA","3206","NA","3206","NA","7508966","space","2","1024","2","48000","-16","experiment","4.1.1.wav","4.1.3.wav","4.1.1.wav","103","odd","7555695","7558148","7557648","7556936","NA","NA","7554695","7558867","1108","NA","NA","7554692","7562073","NA","7554692","7510076","NA","7554695","1110","New experiment","NA","0","0","0","yes","1024"
"undefined","undefined","undefined","undefined","black","no","legacy","0","uniform","undefined","undefined","undefined","7","7","15","7","7","NA","7","7","0","0","0","7","7","0","7","0","NA","7","0","Thu 06 Jun 2019 12:43:32 PM PDT","500","1000","The main experiment item","yes","NA","ABX_v3.osexp","/home/ubuntu/Desktop/panara","yes","no","mono","no","18","no","white","no","yes","768","7","7","/home/ubuntu/Desktop/panara/subject-103.csv","Jazzy James","3.1.3","4.2.4.wav","4.2.2.wav","4.2.2.wav","0","0","NA","0","NA","2101","NA","2101","NA","7508966","space","2","1024","2","48000","-16","experiment","4.2.2.wav","4.2.4.wav","4.2.2.wav","103","odd","7563239","7565699","7565199","7564484","NA","NA","7562238","7566412","1108","NA","NA","7562236","7568513","NA","7562236","7510076","NA","7562239","1110","New experiment","NA","0","0","0","yes","1024"
"undefined","undefined","undefined","undefined","black","no","legacy","0","uniform","undefined","undefined","undefined","8","8","17","8","8","NA","8","8","0","0","0","8","8","0","8","0","NA","8","0","Thu 06 Jun 2019 12:43:32 PM PDT","500","1000","The main experiment item","yes","NA","ABX_v3.osexp","/home/ubuntu/Desktop/panara","yes","no","mono","no","18","no","white","no","yes","768","8","8","/home/ubuntu/Desktop/panara/subject-103.csv","Jazzy James","3.1.3","5.2.4.wav","5.2.4.wav","5.2.2.wav","0","0","NA","0","NA","5497","NA","5497","NA","7508966","space","2","1024","2","48000","-16","experiment","5.2.2.wav","5.2.4.wav","5.2.4.wav","103","odd","7569712","7572232","7571732","7570967","NA","NA","7568712","7572951","1108","NA","NA","7568709","7578448","NA","7568709","7510076","NA","7568712","1110","New experiment","NA","0","0","0","yes","1024"
"undefined","undefined","undefined","undefined","black","no","legacy","0","uniform","undefined","undefined","undefined","9","9","19","9","9","NA","9","9","0","0","0","9","9","0","9","0","NA","9","0","Thu 06 Jun 2019 12:43:32 PM PDT","500","1000","The main experiment item","yes","NA","ABX_v3.osexp","/home/ubuntu/Desktop/panara","no","no","mono","no","18","no","white","no","yes","768","9","9","/home/ubuntu/Desktop/panara/subject-103.csv","Jazzy James","3.1.3","1.1.3.wav","1.1.5.wav","1.1.5.wav","0","0","NA","0","NA","1266","NA","1266","NA","7508966","space","2","1024","2","48000","-16","experiment","1.1.3.wav","1.1.5.wav","1.1.5.wav","103","odd","7579638","7582211","7581711","7580930","NA","NA","7578638","7582998","1108","NA","NA","7578635","7584264","NA","7578635","7510076","NA","7578638","1110","New experiment","NA","0","0","0","yes","1024"
"undefined","undefined","undefined","undefined","black","no","legacy","0","uniform","undefined","undefined","undefined","10","10","21","10","10","NA","10","10","0","0","0","10","10","0","10","0","NA","10","0","Thu 06 Jun 2019 12:43:32 PM PDT","500","1000","The main experiment item","yes","NA","ABX_v3.osexp","/home/ubuntu/Desktop/panara","yes","no","mono","no","18","no","white","no","yes","768","10","10","/home/ubuntu/Desktop/panara/subject-103.csv","Jazzy James","3.1.3","2.2.3.wav","2.2.3.wav","2.2.1.wav","0","1","NA","1","NA","1846","NA","1846","NA","7508966","space","2","1024","2","48000","-16","experiment","2.2.1.wav","2.2.3.wav","2.2.3.wav","103","odd","7585430","7587910","7587410","7586694","NA","NA","7584430","7588625","1108","NA","NA","7584427","7590472","NA","7584427","7510076","NA","7584430","1110","New experiment","NA","0","0","0","yes","1024"
"undefined","undefined","undefined","undefined","black","no","legacy","0","uniform","undefined","undefined","undefined","11","11","23","11","11","NA","11","11","0","0","0","11","11","0","11","0","NA","11","0","Thu 06 Jun 2019 12:43:32 PM PDT","500","1000","The main experiment item","yes","NA","ABX_v3.osexp","/home/ubuntu/Desktop/panara","no","no","mono","no","18","no","white","no","yes","768","11","11","/home/ubuntu/Desktop/panara/subject-103.csv","Jazzy James","3.1.3","1.1.1.wav","1.1.1.wav","1.1.3.wav","0","0","NA","0","NA","1604","NA","1604","NA","7508966","space","2","1024","2","48000","-16","experiment","1.1.1.wav","1.1.3.wav","1.1.1.wav","103","odd","7591641","7594242","7593742","7592957","NA","NA","7590641","7595028","1108","NA","NA","7590639","7596632","NA","7590639","7510076","NA","7590641","1110","New experiment","NA","0","0","0","yes","1024"
"undefined","undefined","undefined","undefined","black","no","legacy","0","uniform","undefined","undefined","undefined","12","12","25","12","12","NA","12","12","0","0","0","12","12","0","12","0","NA","12","0","Thu 06 Jun 2019 12:43:32 PM PDT","500","1000","The main experiment item","yes","NA","ABX_v3.osexp","/home/ubuntu/Desktop/panara","no","no","mono","no","18","no","white","no","yes","768","12","12","/home/ubuntu/Desktop/panara/subject-103.csv","Jazzy James","3.1.3","2.1.3.wav","2.1.3.wav","2.1.5.wav","0","1","NA","1","NA","1405","NA","1405","NA","7508966","space","2","1024","2","48000","-16","experiment","2.1.3.wav","2.1.5.wav","2.1.3.wav","103","odd","7597798","7600286","7599786","7599038","NA","NA","7596797","7601034","1108","NA","NA","7596795","7602439","NA","7596795","7510076","NA","7596797","1110","New experiment","NA","0","0","0","yes","1024"
"undefined","undefined","undefined","undefined","black","no","legacy","0","uniform","undefined","undefined","undefined","13","13","27","13","13","NA","13","13","0","0","0","13","13","0","13","0","NA","13","0","Thu 06 Jun 2019 12:43:32 PM PDT","500","1000","The main experiment item","yes","NA","ABX_v3.osexp","/home/ubuntu/Desktop/panara","yes","no","mono","no","18","no","white","no","yes","768","13","13","/home/ubuntu/Desktop/panara/subject-103.csv","Jazzy James","3.1.3","2.1.3.wav","2.1.1.wav","2.1.1.wav","0","0","NA","0","NA","1185","NA","1185","NA","7508966","space","2","1024","2","48000","-16","experiment","2.1.1.wav","2.1.3.wav","2.1.1.wav","103","odd","7603630","7606141","7605641","7604894","NA","NA","7602630","7606893","1108","NA","NA","7602627","7608079","NA","7602627","7510076","NA","7602630","1110","New experiment","NA","0","0","0","yes","1024"
"undefined","undefined","undefined","undefined","black","no","legacy","0","uniform","undefined","undefined","undefined","14","14","29","14","14","NA","14","14","0","0","0","14","14","0","14","0","NA","14","0","Thu 06 Jun 2019 12:43:32 PM PDT","500","1000","The main experiment item","yes","NA","ABX_v3.osexp","/home/ubuntu/Desktop/panara","yes","no","mono","no","18","no","white","no","yes","768","14","14","/home/ubuntu/Desktop/panara/subject-103.csv","Jazzy James","3.1.3","2.2.3.wav","2.2.1.wav","2.2.1.wav","0","0","NA","0","NA","1509","NA","1509","NA","7508966","space","2","1024","2","48000","-16","experiment","2.2.1.wav","2.2.3.wav","2.2.1.wav","103","odd","7609254","7611707","7611207","7610497","NA","NA","7608254","7612434","1108","NA","NA","7608251","7613943","NA","7608251","7510076","NA","7608254","1110","New experiment","NA","0","0","0","yes","1024"
"undefined","undefined","undefined","undefined","black","no","legacy","0","uniform","undefined","undefined","undefined","15","15","31","15","15","NA","15","15","0","0","0","15","15","0","15","0","NA","15","0","Thu 06 Jun 2019 12:43:32 PM PDT","500","1000","The main experiment item","yes","NA","ABX_v3.osexp","/home/ubuntu/Desktop/panara","no","no","mono","no","18","no","white","no","yes","768","15","15","/home/ubuntu/Desktop/panara/subject-103.csv","Jazzy James","3.1.3","4.1.3.wav","4.1.3.wav","4.1.5.wav","0","1","NA","1","NA","1171","NA","1171","NA","7508966","space","2","1024","2","48000","-16","experiment","4.1.3.wav","4.1.5.wav","4.1.3.wav","103","odd","7615121","7617595","7617095","7616381","NA","NA","7614121","7618315","1108","NA","NA","7614118","7619486","NA","7614118","7510076","NA","7614121","1110","New experiment","NA","0","0","0","yes","1024"
"undefined","undefined","undefined","undefined","black","no","legacy","0","uniform","undefined","undefined","undefined","16","16","33","16","16","NA","16","16","0","0","0","16","16","0","16","0","NA","16","0","Thu 06 Jun 2019 12:43:32 PM PDT","500","1000","The main experiment item","yes","NA","ABX_v3.osexp","/home/ubuntu/Desktop/panara","yes","no","mono","no","18","no","white","no","yes","768","16","16","/home/ubuntu/Desktop/panara/subject-103.csv","Jazzy James","3.1.3","2.2.5.wav","2.2.3.wav","2.2.3.wav","0","0","NA","0","NA","1380","NA","1380","NA","7508966","space","2","1024","2","48000","-16","experiment","2.2.3.wav","2.2.5.wav","2.2.3.wav","103","odd","7620656","7623099","7622599","7621887","NA","NA","7619655","7623817","1108","NA","NA","7619653","7625198","NA","7619652","7510076","NA","7619655","1110","New experiment","NA","0","0","0","yes","1024"
"undefined","undefined","undefined","undefined","black","no","legacy","0","uniform","undefined","undefined","undefined","17","17","35","17","17","NA","17","17","0","0","0","17","17","0","17","0","NA","17","0","Thu 06 Jun 2019 12:43:32 PM PDT","500","1000","The main experiment item","yes","NA","ABX_v3.osexp","/home/ubuntu/Desktop/panara","no","no","mono","no","18","no","white","no","yes","768","17","17","/home/ubuntu/Desktop/panara/subject-103.csv","Jazzy James","3.1.3","4.2.1.wav","4.2.3.wav","4.2.3.wav","0","0","NA","0","NA","1847","NA","1847","NA","7508966","space","2","1024","2","48000","-16","experiment","4.2.1.wav","4.2.3.wav","4.2.3.wav","103","odd","7626359","7628820","7628320","7627588","NA","NA","7625359","7629582","1108","NA","NA","7625357","7631429","NA","7625357","7510076","NA","7625359","1110","New experiment","NA","0","0","0","yes","1024"
"undefined","undefined","undefined","undefined","black","no","legacy","0","uniform","undefined","undefined","undefined","18","18","37","18","18","NA","18","18","0","0","0","18","18","0","18","0","NA","18","0","Thu 06 Jun 2019 12:43:32 PM PDT","500","1000","The main experiment item","yes","NA","ABX_v3.osexp","/home/ubuntu/Desktop/panara","no","no","mono","no","18","no","white","no","yes","768","18","18","/home/ubuntu/Desktop/panara/subject-103.csv","Jazzy James","3.1.3","4.1.2.wav","4.1.2.wav","4.1.4.wav","0","0","NA","0","NA","4338","NA","4338","NA","7508966","space","2","1024","2","48000","-16","experiment","4.1.2.wav","4.1.4.wav","4.1.2.wav","103","odd","7632603","7635029","7634529","7633808","NA","NA","7631602","7635747","1108","NA","NA","7631600","7640085","NA","7631599","7510076","NA","7631603","1110","New experiment","NA","0","0","0","yes","1024"
"undefined","undefined","undefined","undefined","black","no","legacy","0","uniform","undefined","undefined","undefined","19","19","39","19","19","NA","19","19","0","0","0","19","19","0","19","0","NA","19","0","Thu 06 Jun 2019 12:43:32 PM PDT","500","1000","The main experiment item","yes","NA","ABX_v3.osexp","/home/ubuntu/Desktop/panara","yes","no","mono","no","18","no","white","no","yes","768","19","19","/home/ubuntu/Desktop/panara/subject-103.csv","Jazzy James","3.1.3","4.2.5.wav","4.2.5.wav","4.2.3.wav","0","1","NA","1","NA","4533","NA","4533","NA","7508966","space","2","1024","2","48000","-16","experiment","4.2.3.wav","4.2.5.wav","4.2.5.wav","103","odd","7641275","7643736","7643236","7642515","NA","NA","7640275","7644479","1108","NA","NA","7640272","7649013","NA","7640272","7510076","NA","7640275","1110","New experiment","NA","0","0","0","yes","1024"
"undefined","undefined","undefined","undefined","black","no","legacy","0","uniform","undefined","undefined","undefined","20","20","41","20","20","NA","20","20","0","0","0","20","20","0","20","0","NA","20","0","Thu 06 Jun 2019 12:43:32 PM PDT","500","1000","The main experiment item","yes","NA","ABX_v3.osexp","/home/ubuntu/Desktop/panara","no","no","mono","no","18","no","white","no","yes","768","20","20","/home/ubuntu/Desktop/panara/subject-103.csv","Jazzy James","3.1.3","1.2.3.wav","1.2.3.wav","1.2.5.wav","0","1","NA","1","NA","1513","NA","1513","NA","7508966","space","2","1024","2","48000","-16","experiment","1.2.3.wav","1.2.5.wav","1.2.3.wav","103","odd","7650181","7652759","7652259","7651481","NA","NA","7649181","7653539","1108","NA","NA","7649178","7655052","NA","7649178","7510076","NA","7649181","1110","New experiment","NA","0","0","0","yes","1024"
"undefined","undefined","undefined","undefined","black","no","legacy","0","uniform","undefined","undefined","undefined","21","21","43","21","21","NA","21","21","0","0","0","21","21","0","21","0","NA","21","0","Thu 06 Jun 2019 12:43:32 PM PDT","500","1000","The main experiment item","yes","NA","ABX_v3.osexp","/home/ubuntu/Desktop/panara","no","no","mono","no","18","no","white","no","yes","768","21","21","/home/ubuntu/Desktop/panara/subject-103.csv","Jazzy James","3.1.3","1.1.3.wav","1.1.3.wav","1.1.5.wav","0","1","NA","1","NA","1689","NA","1689","NA","7508966","space","2","1024","2","48000","-16","experiment","1.1.3.wav","1.1.5.wav","1.1.3.wav","103","odd","7656232","7658830","7658330","7657550","NA","NA","7655232","7659618","1108","NA","NA","7655229","7661308","NA","7655229","7510076","NA","7655232","1110","New experiment","NA","0","0","0","yes","1024"
"undefined","undefined","undefined","undefined","black","no","legacy","0","uniform","undefined","undefined","undefined","22","22","45","22","22","NA","22","22","0","0","0","22","22","0","22","0","NA","22","0","Thu 06 Jun 2019 12:43:32 PM PDT","500","1000","The main experiment item","yes","NA","ABX_v3.osexp","/home/ubuntu/Desktop/panara","no","no","mono","no","18","no","white","no","yes","768","22","22","/home/ubuntu/Desktop/panara/subject-103.csv","Jazzy James","3.1.3","2.1.2.wav","2.1.2.wav","2.1.4.wav","0","1","NA","1","NA","5189","NA","5189","NA","7508966","space","2","1024","2","48000","-16","experiment","2.1.2.wav","2.1.4.wav","2.1.2.wav","103","odd","7662494","7664978","7664478","7663728","NA","NA","7661494","7665727","1108","NA","NA","7661491","7670916","NA","7661491","7510076","NA","7661494","1110","New experiment","NA","0","0","0","yes","1024"
"undefined","undefined","undefined","undefined","black","no","legacy","0","uniform","undefined","undefined","undefined","23","23","47","23","23","NA","23","23","0","0","0","23","23","0","23","0","NA","23","0","Thu 06 Jun 2019 12:43:32 PM PDT","500","1000","The main experiment item","yes","NA","ABX_v3.osexp","/home/ubuntu/Desktop/panara","no","no","mono","no","18","no","white","no","yes","768","23","23","/home/ubuntu/Desktop/panara/subject-103.csv","Jazzy James","3.1.3","5.2.1.wav","5.2.1.wav","5.2.3.wav","0","1","NA","1","NA","1668","NA","1668","NA","7508966","space","2","1024","2","48000","-16","experiment","5.2.1.wav","5.2.3.wav","5.2.1.wav","103","odd","7672040","7674471","7673971","7673256","NA","NA","7671040","7675232","1108","NA","NA","7671038","7676900","NA","7671038","7510076","NA","7671040","1110","New experiment","NA","0","0","0","yes","1024"
"undefined","undefined","undefined","undefined","black","no","legacy","0","uniform","undefined","undefined","undefined","24","24","49","24","24","NA","24","24","0","0","0","24","24","0","24","0","NA","24","0","Thu 06 Jun 2019 12:43:32 PM PDT","500","1000","The main experiment item","yes","NA","ABX_v3.osexp","/home/ubuntu/Desktop/panara","no","no","mono","no","18","no","white","no","yes","768","24","24","/home/ubuntu/Desktop/panara/subject-103.csv","Jazzy James","3.1.3","1.2.3.wav","1.2.5.wav","1.2.5.wav","0","0","NA","0","NA","1315","NA","1315","NA","7508966","space","2","1024","2","48000","-16","experiment","1.2.3.wav","1.2.5.wav","1.2.5.wav","103","odd","7678040","7680589","7680089","7679319","NA","NA","7677040","7681376","1108","NA","NA","7677037","7682692","NA","7677037","7510076","NA","7677040","1110","New experiment","NA","0","0","0","yes","1024"
"undefined","undefined","undefined","undefined","black","no","legacy","0","uniform","undefined","undefined","undefined","25","25","51","25","25","NA","25","25","0","0","0","25","25","0","25","0","NA","25","0","Thu 06 Jun 2019 12:43:32 PM PDT","500","1000","The main experiment item","yes","NA","ABX_v3.osexp","/home/ubuntu/Desktop/panara","yes","no","mono","no","18","no","white","no","yes","768","25","25","/home/ubuntu/Desktop/panara/subject-103.csv","Jazzy James","3.1.3","1.2.3.wav","1.2.3.wav","1.2.1.wav","0","1","NA","1","NA","2970","NA","2970","NA","7508966","space","2","1024","2","48000","-16","experiment","1.2.1.wav","1.2.3.wav","1.2.3.wav","103","odd","7683852","7686414","7685914","7685139","NA","NA","7682851","7687328","1108","NA","NA","7682849","7690298","NA","7682849","7510076","NA","7682852","1110","New experiment","NA","0","0","0","yes","1024"
"undefined","undefined","undefined","undefined","black","no","legacy","0","uniform","undefined","undefined","undefined","26","26","53","26","26","NA","26","26","0","0","0","26","26","0","26","0","NA","26","0","Thu 06 Jun 2019 12:43:32 PM PDT","500","1000","The main experiment item","yes","NA","ABX_v3.osexp","/home/ubuntu/Desktop/panara","yes","no","mono","no","18","no","white","no","yes","768","26","26","/home/ubuntu/Desktop/panara/subject-103.csv","Jazzy James","3.1.3","2.1.5.wav","2.1.5.wav","2.1.3.wav","0","0","NA","0","NA","6750","NA","6750","NA","7508966","space","2","1024","2","48000","-16","experiment","2.1.3.wav","2.1.5.wav","2.1.5.wav","103","odd","7691481","7693993","7693493","7692747","NA","NA","7690481","7694747","1108","NA","NA","7690478","7701498","NA","7690478","7510076","NA","7690481","1110","New experiment","NA","0","0","0","yes","1024"
"undefined","undefined","undefined","undefined","black","no","legacy","0","uniform","undefined","undefined","undefined","27","27","55","27","27","NA","27","27","0","0","0","27","27","0","27","0","NA","27","0","Thu 06 Jun 2019 12:43:32 PM PDT","500","1000","The main experiment item","yes","NA","ABX_v3.osexp","/home/ubuntu/Desktop/panara","no","no","mono","no","18","no","white","no","yes","768","27","27","/home/ubuntu/Desktop/panara/subject-103.csv","Jazzy James","3.1.3","3.1.3.wav","3.1.5.wav","3.1.5.wav","0","0","NA","0","NA","3020","NA","3020","NA","7508966","space","2","1024","2","48000","-16","experiment","3.1.3.wav","3.1.5.wav","3.1.5.wav","103","odd","7702705","7705248","7704748","7703967","NA","NA","7701704","7706029","1108","NA","NA","7701702","7709049","NA","7701701","7510076","NA","7701705","1110","New experiment","NA","0","0","0","yes","1024"
"undefined","undefined","undefined","undefined","black","no","legacy","0","uniform","undefined","undefined","undefined","28","28","57","28","28","NA","28","28","0","0","0","28","28","0","28","0","NA","28","0","Thu 06 Jun 2019 12:43:32 PM PDT","500","1000","The main experiment item","yes","NA","ABX_v3.osexp","/home/ubuntu/Desktop/panara","no","no","mono","no","18","no","white","no","yes","768","28","28","/home/ubuntu/Desktop/panara/subject-103.csv","Jazzy James","3.1.3","1.2.2.wav","1.2.4.wav","1.2.4.wav","0","0","NA","0","NA","1179","NA","1179","NA","7508966","space","2","1024","2","48000","-16","experiment","1.2.2.wav","1.2.4.wav","1.2.4.wav","103","odd","7710227","7712764","7712264","7711511","NA","NA","7709227","7713510","1108","NA","NA","7709224","7714690","NA","7709224","7510076","NA","7709227","1110","New experiment","NA","0","0","0","yes","1024"
"undefined","undefined","undefined","undefined","black","no","legacy","0","uniform","undefined","undefined","undefined","29","29","59","29","29","NA","29","29","0","0","0","29","29","0","29","0","NA","29","0","Thu 06 Jun 2019 12:43:32 PM PDT","500","1000","The main experiment item","yes","NA","ABX_v3.osexp","/home/ubuntu/Desktop/panara","yes","no","mono","no","18","no","white","no","yes","768","29","29","/home/ubuntu/Desktop/panara/subject-103.csv","Jazzy James","3.1.3","3.2.3.wav","3.2.1.wav","3.2.1.wav","0","0","NA","0","NA","3027","NA","3027","NA","7508966","space","2","1024","2","48000","-16","experiment","3.2.1.wav","3.2.3.wav","3.2.1.wav","103","odd","7715840","7718333","7717833","7717081","NA","NA","7714840","7719085","1108","NA","NA","7714837","7722112","NA","7714837","7510076","NA","7714840","1110","New experiment","NA","0","0","0","yes","1024"
"undefined","undefined","undefined","undefined","black","no","legacy","0","uniform","undefined","undefined","undefined","30","30","61","30","30","NA","30","30","0","0","0","30","30","0","30","0","NA","30","0","Thu 06 Jun 2019 12:43:32 PM PDT","500","1000","The main experiment item","yes","NA","ABX_v3.osexp","/home/ubuntu/Desktop/panara","no","no","mono","no","18","no","white","no","yes","768","30","30","/home/ubuntu/Desktop/panara/subject-103.csv","Jazzy James","3.1.3","2.1.1.wav","2.1.3.wav","2.1.3.wav","0","0","NA","0","NA","3808","NA","3808","NA","7508966","space","2","1024","2","48000","-16","experiment","2.1.1.wav","2.1.3.wav","2.1.3.wav","103","odd","7723295","7725804","7725304","7724554","NA","NA","7722295","7726560","1108","NA","NA","7722292","7730368","NA","7722292","7510076","NA","7722295","1110","New experiment","NA","0","0","0","yes","1024"
"undefined","undefined","undefined","undefined","black","no","legacy","0","uniform","undefined","undefined","undefined","31","31","63","31","31","NA","31","31","0","0","0","31","31","0","31","0","NA","31","0","Thu 06 Jun 2019 12:43:32 PM PDT","500","1000","The main experiment item","yes","NA","ABX_v3.osexp","/home/ubuntu/Desktop/panara","yes","no","mono","no","18","no","white","no","yes","768","31","31","/home/ubuntu/Desktop/panara/subject-103.csv","Jazzy James","3.1.3","3.1.3.wav","3.1.3.wav","3.1.1.wav","0","1","NA","1","NA","1761","NA","1761","NA","7508966","space","2","1024","2","48000","-16","experiment","3.1.1.wav","3.1.3.wav","3.1.3.wav","103","odd","7731534","7734039","7733539","7732787","NA","NA","7730534","7734807","1108","NA","NA","7730532","7736569","NA","7730532","7510076","NA","7730534","1110","New experiment","NA","0","0","0","yes","1024"
"undefined","undefined","undefined","undefined","black","no","legacy","0","uniform","undefined","undefined","undefined","32","32","65","32","32","NA","32","32","0","0","0","32","32","0","32","0","NA","32","0","Thu 06 Jun 2019 12:43:32 PM PDT","500","1000","The main experiment item","yes","NA","ABX_v3.osexp","/home/ubuntu/Desktop/panara","yes","no","mono","no","18","no","white","no","yes","768","32","32","/home/ubuntu/Desktop/panara/subject-103.csv","Jazzy James","3.1.3","3.1.4.wav","3.1.2.wav","3.1.2.wav","0","1","NA","1","NA","3283","NA","3283","NA","7508966","space","2","1024","2","48000","-16","experiment","3.1.2.wav","3.1.4.wav","3.1.2.wav","103","odd","7737750","7740311","7739810","7739031","NA","NA","7736750","7741092","1108","NA","NA","7736747","7744375","NA","7736747","7510076","NA","7736750","1110","New experiment","NA","0","0","0","yes","1024"
"undefined","undefined","undefined","undefined","black","no","legacy","0","uniform","undefined","undefined","undefined","33","33","67","33","33","NA","33","33","0","0","0","33","33","0","33","0","NA","33","0","Thu 06 Jun 2019 12:43:32 PM PDT","500","1000","The main experiment item","yes","NA","ABX_v3.osexp","/home/ubuntu/Desktop/panara","no","no","mono","no","18","no","white","no","yes","768","33","33","/home/ubuntu/Desktop/panara/subject-103.csv","Jazzy James","3.1.3","3.2.3.wav","3.2.5.wav","3.2.5.wav","0","0","NA","0","NA","997","NA","997","NA","7508966","space","2","1024","2","48000","-16","experiment","3.2.3.wav","3.2.5.wav","3.2.5.wav","103","odd","7745552","7748097","7747597","7746816","NA","NA","7744552","7748866","1108","NA","NA","7744549","7749864","NA","7744549","7510076","NA","7744552","1110","New experiment","NA","0","0","0","yes","1024"
"undefined","undefined","undefined","undefined","black","no","legacy","0","uniform","undefined","undefined","undefined","34","34","69","34","34","NA","34","34","0","0","0","34","34","0","34","0","NA","34","0","Thu 06 Jun 2019 12:43:32 PM PDT","500","1000","The main experiment item","yes","NA","ABX_v3.osexp","/home/ubuntu/Desktop/panara","yes","no","mono","no","18","no","white","no","yes","768","34","34","/home/ubuntu/Desktop/panara/subject-103.csv","Jazzy James","3.1.3","3.2.4.wav","3.2.2.wav","3.2.2.wav","0","0","NA","0","NA","1840","NA","1840","NA","7508966","space","2","1024","2","48000","-16","experiment","3.2.2.wav","3.2.4.wav","3.2.2.wav","103","odd","7751014","7753542","7753042","7752266","NA","NA","7750014","7754334","1108","NA","NA","7750011","7756175","NA","7750011","7510076","NA","7750014","1110","New experiment","NA","0","0","0","yes","1024"
"undefined","undefined","undefined","undefined","black","no","legacy","0","uniform","undefined","undefined","undefined","35","35","71","35","35","NA","35","35","0","0","0","35","35","0","35","0","NA","35","0","Thu 06 Jun 2019 12:43:32 PM PDT","500","1000","The main experiment item","yes","NA","ABX_v3.osexp","/home/ubuntu/Desktop/panara","yes","no","mono","no","18","no","white","no","yes","768","35","35","/home/ubuntu/Desktop/panara/subject-103.csv","Jazzy James","3.1.3","3.2.3.wav","3.2.3.wav","3.2.1.wav","0","0","NA","0","NA","6183","NA","6183","NA","7508966","space","2","1024","2","48000","-16","experiment","3.2.1.wav","3.2.3.wav","3.2.3.wav","103","odd","7757343","7759836","7759336","7758585","NA","NA","7756343","7760584","1108","NA","NA","7756340","7766767","NA","7756340","7510076","NA","7756343","1110","New experiment","NA","0","0","0","yes","1024"
"undefined","undefined","undefined","undefined","black","no","legacy","0","uniform","undefined","undefined","undefined","36","36","73","36","36","NA","36","36","0","0","0","36","36","0","36","0","NA","36","0","Thu 06 Jun 2019 12:43:32 PM PDT","500","1000","The main experiment item","yes","NA","ABX_v3.osexp","/home/ubuntu/Desktop/panara","no","no","mono","no","18","no","white","no","yes","768","36","36","/home/ubuntu/Desktop/panara/subject-103.csv","Jazzy James","3.1.3","1.1.1.wav","1.1.3.wav","1.1.3.wav","0","0","NA","0","NA","811","NA","811","NA","7508966","space","2","1024","2","48000","-16","experiment","1.1.1.wav","1.1.3.wav","1.1.3.wav","103","odd","7767955","7770574","7770074","7769276","NA","NA","7766955","7771378","1108","NA","NA","7766953","7772190","NA","7766953","7510076","NA","7766955","1110","New experiment","NA","0","0","0","yes","1024"
"undefined","undefined","undefined","undefined","black","no","legacy","0","uniform","undefined","undefined","undefined","37","37","75","37","37","NA","37","37","0","0","0","37","37","0","37","0","NA","37","0","Thu 06 Jun 2019 12:43:32 PM PDT","500","1000","The main experiment item","yes","NA","ABX_v3.osexp","/home/ubuntu/Desktop/panara","yes","no","mono","no","18","no","white","no","yes","768","37","37","/home/ubuntu/Desktop/panara/subject-103.csv","Jazzy James","3.1.3","4.1.4.wav","4.1.4.wav","4.1.2.wav","0","1","NA","1","NA","2702","NA","2702","NA","7508966","space","2","1024","2","48000","-16","experiment","4.1.2.wav","4.1.4.wav","4.1.4.wav","103","odd","7773373","7775827","7775327","7774606","NA","NA","7772373","7776583","1108","NA","NA","7772370","7779285","NA","7772370","7510076","NA","7772373","1110","New experiment","NA","0","0","0","yes","1024"
"undefined","undefined","undefined","undefined","black","no","legacy","0","uniform","undefined","undefined","undefined","38","38","77","38","38","NA","38","38","0","0","0","38","38","0","38","0","NA","38","0","Thu 06 Jun 2019 12:43:32 PM PDT","500","1000","The main experiment item","yes","NA","ABX_v3.osexp","/home/ubuntu/Desktop/panara","yes","no","mono","no","18","no","white","no","yes","768","38","38","/home/ubuntu/Desktop/panara/subject-103.csv","Jazzy James","3.1.3","4.1.5.wav","4.1.5.wav","4.1.3.wav","0","1","NA","1","NA","1618","NA","1618","NA","7508966","space","2","1024","2","48000","-16","experiment","4.1.3.wav","4.1.5.wav","4.1.5.wav","103","odd","7780459","7782925","7782425","7781673","NA","NA","7779459","7783650","1108","NA","NA","7779457","7785269","NA","7779457","7510076","NA","7779459","1110","New experiment","NA","0","0","0","yes","1024"
"undefined","undefined","undefined","undefined","black","no","legacy","0","uniform","undefined","undefined","undefined","39","39","79","39","39","NA","39","39","0","0","0","39","39","0","39","0","NA","39","0","Thu 06 Jun 2019 12:43:32 PM PDT","500","1000","The main experiment item","yes","NA","ABX_v3.osexp","/home/ubuntu/Desktop/panara","yes","no","mono","no","18","no","white","no","yes","768","39","39","/home/ubuntu/Desktop/panara/subject-103.csv","Jazzy James","3.1.3","2.2.5.wav","2.2.5.wav","2.2.3.wav","0","1","NA","1","NA","2246","NA","2246","NA","7508966","space","2","1024","2","48000","-16","experiment","2.2.3.wav","2.2.5.wav","2.2.5.wav","103","odd","7786434","7788883","7788383","7787661","NA","NA","7785433","7789631","1108","NA","NA","7785431","7791878","NA","7785431","7510076","NA","7785434","1110","New experiment","NA","0","0","0","yes","1024"
"undefined","undefined","undefined","undefined","black","no","legacy","0","uniform","undefined","undefined","undefined","40","40","81","40","40","NA","40","40","0","0","0","40","40","0","40","0","NA","40","0","Thu 06 Jun 2019 12:43:32 PM PDT","500","1000","The main experiment item","yes","NA","ABX_v3.osexp","/home/ubuntu/Desktop/panara","yes","no","mono","no","18","no","white","no","yes","768","40","40","/home/ubuntu/Desktop/panara/subject-103.csv","Jazzy James","3.1.3","5.2.3.wav","5.2.3.wav","5.2.1.wav","0","1","NA","1","NA","1129","NA","1129","NA","7508966","space","2","1024","2","48000","-16","experiment","5.2.1.wav","5.2.3.wav","5.2.3.wav","103","odd","7793022","7795492","7794992","7794238","NA","NA","7792022","7796187","1108","NA","NA","7792020","7797316","NA","7792020","7510076","NA","7792022","1110","New experiment","NA","0","0","0","yes","1024"
"undefined","undefined","undefined","undefined","black","no","legacy","0","uniform","undefined","undefined","undefined","41","41","83","41","41","NA","41","41","0","0","0","41","41","0","41","0","NA","41","0","Thu 06 Jun 2019 12:43:32 PM PDT","500","1000","The main experiment item","yes","NA","ABX_v3.osexp","/home/ubuntu/Desktop/panara","no","no","mono","no","18","no","white","no","yes","768","41","41","/home/ubuntu/Desktop/panara/subject-103.csv","Jazzy James","3.1.3","2.2.2.wav","2.2.4.wav","2.2.4.wav","0","1","NA","1","NA","2615","NA","2615","NA","7508966","space","2","1024","2","48000","-16","experiment","2.2.2.wav","2.2.4.wav","2.2.4.wav","103","odd","7798502","7800972","7800472","7799720","NA","NA","7797502","7801692","1108","NA","NA","7797499","7804308","NA","7797499","7510076","NA","7797502","1110","New experiment","NA","0","0","0","yes","1024"
"undefined","undefined","undefined","undefined","black","no","legacy","0","uniform","undefined","undefined","undefined","42","42","85","42","42","NA","42","42","0","0","0","42","42","0","42","0","NA","42","0","Thu 06 Jun 2019 12:43:32 PM PDT","500","1000","The main experiment item","yes","NA","ABX_v3.osexp","/home/ubuntu/Desktop/panara","no","no","mono","no","18","no","white","no","yes","768","42","42","/home/ubuntu/Desktop/panara/subject-103.csv","Jazzy James","3.1.3","5.2.3.wav","5.2.5.wav","5.2.5.wav","0","0","NA","0","NA","1072","NA","1072","NA","7508966","space","2","1024","2","48000","-16","experiment","5.2.3.wav","5.2.5.wav","5.2.5.wav","103","odd","7805492","7807928","7807428","7806712","NA","NA","7804492","7808652","1108","NA","NA","7804490","7809725","NA","7804490","7510076","NA","7804492","1110","New experiment","NA","0","0","0","yes","1024"
"undefined","undefined","undefined","undefined","black","no","legacy","0","uniform","undefined","undefined","undefined","43","43","87","43","43","NA","43","43","0","0","0","43","43","0","43","0","NA","43","0","Thu 06 Jun 2019 12:43:32 PM PDT","500","1000","The main experiment item","yes","NA","ABX_v3.osexp","/home/ubuntu/Desktop/panara","no","no","mono","no","18","no","white","no","yes","768","43","43","/home/ubuntu/Desktop/panara/subject-103.csv","Jazzy James","3.1.3","1.1.2.wav","1.1.2.wav","1.1.4.wav","0","1","NA","1","NA","1556","NA","1556","NA","7508966","space","2","1024","2","48000","-16","experiment","1.1.2.wav","1.1.4.wav","1.1.2.wav","103","odd","7810903","7813474","7812974","7812195","NA","NA","7809903","7814248","1108","NA","NA","7809900","7815804","NA","7809900","7510076","NA","7809903","1110","New experiment","NA","0","0","0","yes","1024"
"undefined","undefined","undefined","undefined","black","no","legacy","0","uniform","undefined","undefined","undefined","44","44","89","44","44","NA","44","44","0","0","0","44","44","0","44","0","NA","44","0","Thu 06 Jun 2019 12:43:32 PM PDT","500","1000","The main experiment item","yes","NA","ABX_v3.osexp","/home/ubuntu/Desktop/panara","yes","no","mono","no","18","no","white","no","yes","768","44","44","/home/ubuntu/Desktop/panara/subject-103.csv","Jazzy James","3.1.3","4.2.3.wav","4.2.1.wav","4.2.1.wav","0","0","NA","0","NA","6018","NA","6018","NA","7508966","space","2","1024","2","48000","-16","experiment","4.2.1.wav","4.2.3.wav","4.2.1.wav","103","odd","7816974","7819453","7818953","7818237","NA","NA","7815974","7820208","1108","NA","NA","7815972","7826227","NA","7815972","7510076","NA","7815974","1110","New experiment","NA","0","0","0","yes","1024"
"undefined","undefined","undefined","undefined","black","no","legacy","0","uniform","undefined","undefined","undefined","45","45","91","45","45","NA","45","45","0","0","0","45","45","0","45","0","NA","45","0","Thu 06 Jun 2019 12:43:32 PM PDT","500","1000","The main experiment item","yes","NA","ABX_v3.osexp","/home/ubuntu/Desktop/panara","no","no","mono","no","18","no","white","no","yes","768","45","45","/home/ubuntu/Desktop/panara/subject-103.csv","Jazzy James","3.1.3","5.2.2.wav","5.2.2.wav","5.2.4.wav","0","1","NA","1","NA","1518","NA","1518","NA","7508966","space","2","1024","2","48000","-16","experiment","5.2.2.wav","5.2.4.wav","5.2.2.wav","103","odd","7827402","7829856","7829356","7828632","NA","NA","7826402","7830612","1108","NA","NA","7826400","7832130","NA","7826400","7510076","NA","7826402","1110","New experiment","NA","0","0","0","yes","1024"
"undefined","undefined","undefined","undefined","black","no","legacy","0","uniform","undefined","undefined","undefined","46","46","93","46","46","NA","46","46","0","0","0","46","46","0","46","0","NA","46","0","Thu 06 Jun 2019 12:43:32 PM PDT","500","1000","The main experiment item","yes","NA","ABX_v3.osexp","/home/ubuntu/Desktop/panara","no","no","mono","no","18","no","white","no","yes","768","46","46","/home/ubuntu/Desktop/panara/subject-103.csv","Jazzy James","3.1.3","1.1.2.wav","1.1.4.wav","1.1.4.wav","0","0","NA","0","NA","873","NA","873","NA","7508966","space","2","1024","2","48000","-16","experiment","1.1.2.wav","1.1.4.wav","1.1.4.wav","103","odd","7833349","7835915","7835415","7834634","NA","NA","7832349","7836698","1108","NA","NA","7832346","7837571","NA","7832346","7510076","NA","7832349","1110","New experiment","NA","0","0","0","yes","1024"
"undefined","undefined","undefined","undefined","black","no","legacy","0","uniform","undefined","undefined","undefined","47","47","95","47","47","NA","47","47","0","0","0","47","47","0","47","0","NA","47","0","Thu 06 Jun 2019 12:43:32 PM PDT","500","1000","The main experiment item","yes","NA","ABX_v3.osexp","/home/ubuntu/Desktop/panara","yes","no","mono","no","18","no","white","no","yes","768","47","47","/home/ubuntu/Desktop/panara/subject-103.csv","Jazzy James","3.1.3","4.2.4.wav","4.2.4.wav","4.2.2.wav","0","1","NA","1","NA","2429","NA","2429","NA","7508966","space","2","1024","2","48000","-16","experiment","4.2.2.wav","4.2.4.wav","4.2.4.wav","103","odd","7838754","7841233","7840733","7840010","NA","NA","7837754","7841988","1108","NA","NA","7837751","7844418","NA","7837751","7510076","NA","7837754","1110","New experiment","NA","0","0","0","yes","1024"
"undefined","undefined","undefined","undefined","black","no","legacy","0","uniform","undefined","undefined","undefined","48","48","97","48","48","NA","48","48","0","0","0","48","48","0","48","0","NA","48","0","Thu 06 Jun 2019 12:43:32 PM PDT","500","1000","The main experiment item","yes","NA","ABX_v3.osexp","/home/ubuntu/Desktop/panara","no","no","mono","no","18","no","white","no","yes","768","48","48","/home/ubuntu/Desktop/panara/subject-103.csv","Jazzy James","3.1.3","5.2.3.wav","5.2.3.wav","5.2.5.wav","0","1","NA","1","NA","1153","NA","1153","NA","7508966","space","2","1024","2","48000","-16","experiment","5.2.3.wav","5.2.5.wav","5.2.3.wav","103","odd","7845599","7848060","7847560","7846836","NA","NA","7844599","7848777","1108","NA","NA","7844596","7849930","NA","7844596","7510076","NA","7844599","1110","New experiment","NA","0","0","0","yes","1024"
"undefined","undefined","undefined","undefined","black","no","legacy","0","uniform","undefined","undefined","undefined","49","49","99","49","49","NA","49","49","0","0","0","49","49","0","49","0","NA","49","0","Thu 06 Jun 2019 12:43:32 PM PDT","500","1000","The main experiment item","yes","NA","ABX_v3.osexp","/home/ubuntu/Desktop/panara","no","no","mono","no","18","no","white","no","yes","768","49","49","/home/ubuntu/Desktop/panara/subject-103.csv","Jazzy James","3.1.3","3.2.3.wav","3.2.3.wav","3.2.5.wav","0","0","NA","0","NA","3651","NA","3651","NA","7508966","space","2","1024","2","48000","-16","experiment","3.2.3.wav","3.2.5.wav","3.2.3.wav","103","odd","7851100","7853598","7853098","7852348","NA","NA","7850100","7854381","1108","NA","NA","7850098","7858033","NA","7850098","7510076","NA","7850100","1110","New experiment","NA","0","0","0","yes","1024"
"undefined","undefined","undefined","undefined","black","no","legacy","0","uniform","undefined","undefined","undefined","50","50","101","50","50","NA","50","50","0","0","0","50","50","0","50","0","NA","50","0","Thu 06 Jun 2019 12:43:32 PM PDT","500","1000","The main experiment item","yes","NA","ABX_v3.osexp","/home/ubuntu/Desktop/panara","no","no","mono","no","18","no","white","no","yes","768","50","50","/home/ubuntu/Desktop/panara/subject-103.csv","Jazzy James","3.1.3","2.2.2.wav","2.2.2.wav","2.2.4.wav","0","1","space","1","NA","1794","31124","1794","NA","7508966","space","2","1024","2","48000","-16","experiment","2.2.2.wav","2.2.4.wav","2.2.2.wav","103","odd","7890345","7892809","7892309","7891555","7858219","NA","7889345","7893548","1108","NA","NA","7858216","7895343","NA","7858216","7510076","NA","7889345","1110","New experiment","NA","0","0","0","yes","1024"
"undefined","undefined","undefined","undefined","black","no","legacy","0","uniform","undefined","undefined","undefined","51","51","103","51","51","NA","51","51","0","0","0","51","51","0","51","0","NA","51","0","Thu 06 Jun 2019 12:43:32 PM PDT","500","1000","The main experiment item","yes","NA","ABX_v3.osexp","/home/ubuntu/Desktop/panara","yes","no","mono","no","18","no","white","no","yes","768","51","51","/home/ubuntu/Desktop/panara/subject-103.csv","Jazzy James","3.1.3","3.1.3.wav","3.1.1.wav","3.1.1.wav","0","0","space","0","NA","4231","31124","4231","NA","7508966","space","2","1024","2","48000","-16","experiment","3.1.1.wav","3.1.3.wav","3.1.1.wav","103","odd","7896512","7899035","7898535","7897778","7858219","NA","7895511","7899783","1108","NA","NA","7895509","7904014","NA","7895509","7510076","NA","7895512","1110","New experiment","NA","0","0","0","yes","1024"
"undefined","undefined","undefined","undefined","black","no","legacy","0","uniform","undefined","undefined","undefined","52","52","105","52","52","NA","52","52","0","0","0","52","52","0","52","0","NA","52","0","Thu 06 Jun 2019 12:43:32 PM PDT","500","1000","The main experiment item","yes","NA","ABX_v3.osexp","/home/ubuntu/Desktop/panara","yes","no","mono","no","18","no","white","no","yes","768","52","52","/home/ubuntu/Desktop/panara/subject-103.csv","Jazzy James","3.1.3","1.2.4.wav","1.2.2.wav","1.2.2.wav","0","0","space","0","NA","851","31124","851","NA","7508966","space","2","1024","2","48000","-16","experiment","1.2.2.wav","1.2.4.wav","1.2.2.wav","103","odd","7905215","7907746","7907246","7906475","7858219","NA","7904215","7908530","1108","NA","NA","7904213","7909382","NA","7904213","7510076","NA","7904215","1110","New experiment","NA","0","0","0","yes","1024"
"undefined","undefined","undefined","undefined","black","no","legacy","0","uniform","undefined","undefined","undefined","53","53","107","53","53","NA","53","53","0","0","0","53","53","0","53","0","NA","53","0","Thu 06 Jun 2019 12:43:32 PM PDT","500","1000","The main experiment item","yes","NA","ABX_v3.osexp","/home/ubuntu/Desktop/panara","yes","no","mono","no","18","no","white","no","yes","768","53","53","/home/ubuntu/Desktop/panara/subject-103.csv","Jazzy James","3.1.3","4.1.3.wav","4.1.3.wav","4.1.1.wav","0","1","space","1","NA","3979","31124","3979","NA","7508966","space","2","1024","2","48000","-16","experiment","4.1.1.wav","4.1.3.wav","4.1.3.wav","103","odd","7910546","7912967","7912467","7911756","7858219","NA","7909546","7913691","1108","NA","NA","7909543","7917671","NA","7909543","7510076","NA","7909546","1110","New experiment","NA","0","0","0","yes","1024"
"undefined","undefined","undefined","undefined","black","no","legacy","0","uniform","undefined","undefined","undefined","54","54","109","54","54","NA","54","54","0","0","0","54","54","0","54","0","NA","54","0","Thu 06 Jun 2019 12:43:32 PM PDT","500","1000","The main experiment item","yes","NA","ABX_v3.osexp","/home/ubuntu/Desktop/panara","no","no","mono","no","18","no","white","no","yes","768","0","53","/home/ubuntu/Desktop/panara/subject-103.csv","Jazzy James","3.1.3","3.2.2.wav","3.2.4.wav","4.2.4.wav","0","1","space","1","NA","2139","31124","2139","NA","7508966","space","2","1024","2","48000","-16","experiment","3.2.2.wav","4.2.4.wav","3.2.4.wav","103","odd","7918876","7921399","7920899","7920156","7858219","NA","7917876","7922138","1108","NA","NA","7917874","7924277","7917805","7917874","7510076","NA","7917876","1110","New experiment","NA","0","0","0","yes","1024"
"undefined","undefined","undefined","undefined","black","no","legacy","0","uniform","undefined","undefined","undefined","55","55","111","55","55","NA","55","55","0","0","0","55","55","0","55","0","NA","55","0","Thu 06 Jun 2019 12:43:32 PM PDT","500","1000","The main experiment item","yes","NA","ABX_v3.osexp","/home/ubuntu/Desktop/panara","yes","no","mono","no","18","no","white","no","yes","768","1","53","/home/ubuntu/Desktop/panara/subject-103.csv","Jazzy James","3.1.3","4.2.5.wav","4.2.3.wav","2.2.3.wav","0","1","space","1","NA","1702","31124","1702","NA","7508966","space","2","1024","2","48000","-16","experiment","2.2.3.wav","4.2.5.wav","4.2.3.wav","103","odd","7925455","7927921","7927420","7926667","7858219","NA","7924454","7928646","1108","NA","NA","7924452","7930349","7917805","7924452","7510076","NA","7924455","1110","New experiment","NA","0","0","0","yes","1024"
"undefined","undefined","undefined","undefined","black","no","legacy","0","uniform","undefined","undefined","undefined","56","56","113","56","56","NA","56","56","0","0","0","56","56","0","56","0","NA","56","0","Thu 06 Jun 2019 12:43:32 PM PDT","500","1000","The main experiment item","yes","NA","ABX_v3.osexp","/home/ubuntu/Desktop/panara","yes","no","mono","no","18","no","white","no","yes","768","2","53","/home/ubuntu/Desktop/panara/subject-103.csv","Jazzy James","3.1.3","3.1.4.wav","4.1.4.wav","4.1.2.wav","0","1","space","1","NA","4264","31124","4264","NA","7508966","space","2","1024","2","48000","-16","experiment","4.1.2.wav","3.1.4.wav","4.1.4.wav","103","odd","7931520","7934065","7933565","7932811","7858219","NA","7930520","7934788","1108","NA","NA","7930517","7939053","7917805","7930517","7510076","NA","7930520","1110","New experiment","NA","0","0","0","yes","1024"
"undefined","undefined","undefined","undefined","black","no","legacy","0","uniform","undefined","undefined","undefined","57","57","115","57","57","NA","57","57","0","0","0","57","57","0","57","0","NA","57","0","Thu 06 Jun 2019 12:43:32 PM PDT","500","1000","The main experiment item","yes","NA","ABX_v3.osexp","/home/ubuntu/Desktop/panara","yes","no","mono","no","18","no","white","no","yes","768","3","53","/home/ubuntu/Desktop/panara/subject-103.csv","Jazzy James","3.1.3","4.1.4.wav","4.1.2.wav","2.1.2.wav","0","1","space","1","NA","1098","31124","1098","NA","7508966","space","2","1024","2","48000","-16","experiment","2.1.2.wav","4.1.4.wav","4.1.2.wav","103","odd","7940233","7942688","7942188","7941466","7858219","NA","7939233","7943435","1108","NA","NA","7939230","7944533","7917805","7939230","7510076","NA","7939233","1110","New experiment","NA","0","0","0","yes","1024"
"undefined","undefined","undefined","undefined","black","no","legacy","0","uniform","undefined","undefined","undefined","58","58","117","58","58","NA","58","58","0","0","0","58","58","0","58","0","NA","58","0","Thu 06 Jun 2019 12:43:32 PM PDT","500","1000","The main experiment item","yes","NA","ABX_v3.osexp","/home/ubuntu/Desktop/panara","no","no","mono","no","18","no","white","no","yes","768","4","53","/home/ubuntu/Desktop/panara/subject-103.csv","Jazzy James","3.1.3","4.2.2.wav","2.2.2.wav","2.2.4.wav","0","0","space","0","NA","1202","31124","1202","NA","7508966","space","2","1024","2","48000","-16","experiment","4.2.2.wav","2.2.4.wav","2.2.2.wav","103","odd","7945697","7948165","7947665","7946949","7858219","NA","7944697","7948889","1108","NA","NA","7944695","7950092","7917805","7944695","7510076","NA","7944697","1110","New experiment","NA","0","0","0","yes","1024"
"undefined","undefined","undefined","undefined","black","no","legacy","0","uniform","undefined","undefined","undefined","59","59","119","59","59","NA","59","59","0","0","0","59","59","0","59","0","NA","59","0","Thu 06 Jun 2019 12:43:32 PM PDT","500","1000","The main experiment item","yes","NA","ABX_v3.osexp","/home/ubuntu/Desktop/panara","yes","no","mono","no","18","no","white","no","yes","768","5","53","/home/ubuntu/Desktop/panara/subject-103.csv","Jazzy James","3.1.3","1.1.5.wav","1.1.3.wav","1.2.3.wav","0","1","space","1","NA","3211","31124","3211","NA","7508966","space","2","1024","2","48000","-16","experiment","1.2.3.wav","1.1.5.wav","1.1.3.wav","103","odd","7951284","7953880","7953380","7952574","7858219","NA","7950284","7954657","1108","NA","NA","7950281","7957868","7917805","7950281","7510076","NA","7950284","1110","New experiment","NA","0","0","0","yes","1024"
"undefined","undefined","undefined","undefined","black","no","legacy","0","uniform","undefined","undefined","undefined","60","60","121","60","60","NA","60","60","0","0","0","60","60","0","60","0","NA","60","0","Thu 06 Jun 2019 12:43:32 PM PDT","500","1000","The main experiment item","yes","NA","ABX_v3.osexp","/home/ubuntu/Desktop/panara","no","no","mono","no","18","no","white","no","yes","768","6","53","/home/ubuntu/Desktop/panara/subject-103.csv","Jazzy James","3.1.3","1.2.2.wav","1.2.4.wav","2.2.4.wav","0","0","space","0","NA","1639","31124","1639","NA","7508966","space","2","1024","2","48000","-16","experiment","1.2.2.wav","2.2.4.wav","1.2.4.wav","103","odd","7959048","7961583","7961083","7960330","7858219","NA","7958048","7962300","1108","NA","NA","7958046","7963940","7917805","7958046","7510076","NA","7958048","1110","New experiment","NA","0","0","0","yes","1024"
"undefined","undefined","undefined","undefined","black","no","legacy","0","uniform","undefined","undefined","undefined","61","61","123","61","61","NA","61","61","0","0","0","61","61","0","61","0","NA","61","0","Thu 06 Jun 2019 12:43:32 PM PDT","500","1000","The main experiment item","yes","NA","ABX_v3.osexp","/home/ubuntu/Desktop/panara","yes","no","mono","no","18","no","white","no","yes","768","7","53","/home/ubuntu/Desktop/panara/subject-103.csv","Jazzy James","3.1.3","2.1.4.wav","2.1.2.wav","2.2.2.wav","0","1","space","1","NA","2387","31124","2387","NA","7508966","space","2","1024","2","48000","-16","experiment","2.2.2.wav","2.1.4.wav","2.1.2.wav","103","odd","7965126","7967634","7967134","7966382","7858219","NA","7964126","7968360","1108","NA","NA","7964124","7970748","7917805","7964124","7510076","NA","7964126","1110","New experiment","NA","0","0","0","yes","1024"
"undefined","undefined","undefined","undefined","black","no","legacy","0","uniform","undefined","undefined","undefined","62","62","125","62","62","NA","62","62","0","0","0","62","62","0","62","0","NA","62","0","Thu 06 Jun 2019 12:43:32 PM PDT","500","1000","The main experiment item","yes","NA","ABX_v3.osexp","/home/ubuntu/Desktop/panara","yes","no","mono","no","18","no","white","no","yes","768","8","53","/home/ubuntu/Desktop/panara/subject-103.csv","Jazzy James","3.1.3","4.2.4.wav","2.2.4.wav","2.2.2.wav","0","0","space","0","NA","2698","31124","2698","NA","7508966","space","2","1024","2","48000","-16","experiment","2.2.2.wav","4.2.4.wav","2.2.4.wav","103","odd","7971912","7974368","7973868","7973146","7858219","NA","7970912","7975121","1108","NA","NA","7970909","7977819","7917805","7970909","7510076","NA","7970912","1110","New experiment","NA","0","0","0","yes","1024"
"undefined","undefined","undefined","undefined","black","no","legacy","0","uniform","undefined","undefined","undefined","63","63","127","63","63","NA","63","63","0","0","0","63","63","0","63","0","NA","63","0","Thu 06 Jun 2019 12:43:32 PM PDT","500","1000","The main experiment item","yes","NA","ABX_v3.osexp","/home/ubuntu/Desktop/panara","no","no","mono","no","18","no","white","no","yes","768","9","53","/home/ubuntu/Desktop/panara/subject-103.csv","Jazzy James","3.1.3","4.1.1.wav","4.1.3.wav","3.1.3.wav","0","0","space","0","NA","2873","31124","2873","NA","7508966","space","2","1024","2","48000","-16","experiment","4.1.1.wav","3.1.3.wav","4.1.3.wav","103","odd","7978990","7981471","7980971","7980250","7858219","NA","7977990","7982224","1108","NA","NA","7977987","7985098","7917805","7977987","7510076","NA","7977990","1110","New experiment","NA","0","0","0","yes","1024"
"undefined","undefined","undefined","undefined","black","no","legacy","0","uniform","undefined","undefined","undefined","64","64","129","64","64","NA","64","64","0","0","0","64","64","0","64","0","NA","64","0","Thu 06 Jun 2019 12:43:32 PM PDT","500","1000","The main experiment item","yes","NA","ABX_v3.osexp","/home/ubuntu/Desktop/panara","yes","no","mono","no","18","no","white","no","yes","768","10","53","/home/ubuntu/Desktop/panara/subject-103.csv","Jazzy James","3.1.3","2.2.3.wav","2.2.1.wav","2.1.1.wav","0","0","space","0","NA","1875","31124","1875","NA","7508966","space","2","1024","2","48000","-16","experiment","2.1.1.wav","2.2.3.wav","2.2.1.wav","103","odd","7986284","7988722","7988222","7987500","7858219","NA","7985284","7989470","1108","NA","NA","7985282","7991345","7917805","7985282","7510076","NA","7985284","1110","New experiment","NA","0","0","0","yes","1024"
"undefined","undefined","undefined","undefined","black","no","legacy","0","uniform","undefined","undefined","undefined","65","65","131","65","65","NA","65","65","0","0","0","65","65","0","65","0","NA","65","0","Thu 06 Jun 2019 12:43:32 PM PDT","500","1000","The main experiment item","yes","NA","ABX_v3.osexp","/home/ubuntu/Desktop/panara","yes","no","mono","no","18","no","white","no","yes","768","11","53","/home/ubuntu/Desktop/panara/subject-103.csv","Jazzy James","3.1.3","1.2.5.wav","2.2.5.wav","2.2.3.wav","0","0","space","0","NA","1123","31124","1123","NA","7508966","space","2","1024","2","48000","-16","experiment","2.2.3.wav","1.2.5.wav","2.2.5.wav","103","odd","7992542","7995075","7994575","7993821","7858219","NA","7991541","7995799","1108","NA","NA","7991539","7996922","7917805","7991539","7510076","NA","7991542","1110","New experiment","NA","0","0","0","yes","1024"
"undefined","undefined","undefined","undefined","black","no","legacy","0","uniform","undefined","undefined","undefined","66","66","133","66","66","NA","66","66","0","0","0","66","66","0","66","0","NA","66","0","Thu 06 Jun 2019 12:43:32 PM PDT","500","1000","The main experiment item","yes","NA","ABX_v3.osexp","/home/ubuntu/Desktop/panara","no","no","mono","no","18","no","white","no","yes","768","12","53","/home/ubuntu/Desktop/panara/subject-103.csv","Jazzy James","3.1.3","1.2.1.wav","1.2.3.wav","3.2.3.wav","0","1","space","1","NA","975","31124","975","NA","7508966","space","2","1024","2","48000","-16","experiment","1.2.1.wav","3.2.3.wav","1.2.3.wav","103","odd","7998092","8000662","8000162","7999385","7858219","NA","7997091","8001417","1108","NA","NA","7997089","8002393","7917805","7997089","7510076","NA","7997092","1110","New experiment","NA","0","0","0","yes","1024"
"undefined","undefined","undefined","undefined","black","no","legacy","0","uniform","undefined","undefined","undefined","67","67","135","67","67","NA","67","67","0","0","0","67","67","0","67","0","NA","67","0","Thu 06 Jun 2019 12:43:32 PM PDT","500","1000","The main experiment item","yes","NA","ABX_v3.osexp","/home/ubuntu/Desktop/panara","no","no","mono","no","18","no","white","no","yes","768","13","53","/home/ubuntu/Desktop/panara/subject-103.csv","Jazzy James","3.1.3","2.1.3.wav","4.1.3.wav","4.1.5.wav","0","0","space","0","NA","5910","31124","5910","NA","7508966","space","2","1024","2","48000","-16","experiment","2.1.3.wav","4.1.5.wav","4.1.3.wav","103","odd","8003543","8006039","8005539","8004786","7858219","NA","8002543","8006763","1108","NA","NA","8002540","8012673","7917805","8002540","7510076","NA","8002543","1110","New experiment","NA","0","0","0","yes","1024"
"undefined","undefined","undefined","undefined","black","no","legacy","0","uniform","undefined","undefined","undefined","68","68","137","68","68","NA","68","68","0","0","0","68","68","0","68","0","NA","68","0","Thu 06 Jun 2019 12:43:32 PM PDT","500","1000","The main experiment item","yes","NA","ABX_v3.osexp","/home/ubuntu/Desktop/panara","yes","no","mono","no","18","no","white","no","yes","768","14","53","/home/ubuntu/Desktop/panara/subject-103.csv","Jazzy James","3.1.3","2.2.3.wav","2.2.1.wav","1.2.1.wav","0","0","space","0","NA","2074","31124","2074","NA","7508966","space","2","1024","2","48000","-16","experiment","1.2.1.wav","2.2.3.wav","2.2.1.wav","103","odd","8013838","8016328","8015828","8015105","7858219","NA","8012837","8017109","1108","NA","NA","8012835","8019184","7917805","8012835","7510076","NA","8012838","1110","New experiment","NA","0","0","0","yes","1024"
"undefined","undefined","undefined","undefined","black","no","legacy","0","uniform","undefined","undefined","undefined","69","69","139","69","69","NA","69","69","0","0","0","69","69","0","69","0","NA","69","0","Thu 06 Jun 2019 12:43:32 PM PDT","500","1000","The main experiment item","yes","NA","ABX_v3.osexp","/home/ubuntu/Desktop/panara","yes","no","mono","no","18","no","white","no","yes","768","15","53","/home/ubuntu/Desktop/panara/subject-103.csv","Jazzy James","3.1.3","2.2.4.wav","2.1.4.wav","2.1.2.wav","0","1","space","1","NA","1069","31124","1069","NA","7508966","space","2","1024","2","48000","-16","experiment","2.1.2.wav","2.2.4.wav","2.1.4.wav","103","odd","8020364","8022848","8022348","8021595","7858219","NA","8019364","8023603","1108","NA","NA","8019361","8024673","7917805","8019361","7510076","NA","8019364","1110","New experiment","NA","0","0","0","yes","1024"
"undefined","undefined","undefined","undefined","black","no","legacy","0","uniform","undefined","undefined","undefined","70","70","141","70","70","NA","70","70","0","0","0","70","70","0","70","0","NA","70","0","Thu 06 Jun 2019 12:43:32 PM PDT","500","1000","The main experiment item","yes","NA","ABX_v3.osexp","/home/ubuntu/Desktop/panara","yes","no","mono","no","18","no","white","no","yes","768","16","53","/home/ubuntu/Desktop/panara/subject-103.csv","Jazzy James","3.1.3","2.1.3.wav","2.1.1.wav","4.1.1.wav","0","1","space","1","NA","1689","31124","1689","NA","7508966","space","2","1024","2","48000","-16","experiment","4.1.1.wav","2.1.3.wav","2.1.1.wav","103","odd","8025839","8028331","8027831","8027078","7858219","NA","8024839","8029055","1108","NA","NA","8024837","8030744","7917805","8024837","7510076","NA","8024839","1110","New experiment","NA","0","0","0","yes","1024"
"undefined","undefined","undefined","undefined","black","no","legacy","0","uniform","undefined","undefined","undefined","71","71","143","71","71","NA","71","71","0","0","0","71","71","0","71","0","NA","71","0","Thu 06 Jun 2019 12:43:32 PM PDT","500","1000","The main experiment item","yes","NA","ABX_v3.osexp","/home/ubuntu/Desktop/panara","no","no","mono","no","18","no","white","no","yes","768","17","53","/home/ubuntu/Desktop/panara/subject-103.csv","Jazzy James","3.1.3","3.2.3.wav","3.2.5.wav","1.2.5.wav","0","1","space","1","NA","1087","31124","1087","NA","7508966","space","2","1024","2","48000","-16","experiment","3.2.3.wav","1.2.5.wav","3.2.5.wav","103","odd","8031906","8034432","8033932","8033153","7858219","NA","8030906","8035215","1108","NA","NA","8030904","8036303","7917805","8030904","7510076","NA","8030906","1110","New experiment","NA","0","0","0","yes","1024"
"undefined","undefined","undefined","undefined","black","no","legacy","0","uniform","undefined","undefined","undefined","72","72","145","72","72","NA","72","72","0","0","0","72","72","0","72","0","NA","72","0","Thu 06 Jun 2019 12:43:32 PM PDT","500","1000","The main experiment item","yes","NA","ABX_v3.osexp","/home/ubuntu/Desktop/panara","no","no","mono","no","18","no","white","no","yes","768","18","53","/home/ubuntu/Desktop/panara/subject-103.csv","Jazzy James","3.1.3","4.1.2.wav","4.1.4.wav","4.2.4.wav","0","0","space","0","NA","767","31124","767","NA","7508966","space","2","1024","2","48000","-16","experiment","4.1.2.wav","4.2.4.wav","4.1.4.wav","103","odd","8037472","8039919","8039419","8038698","7858219","NA","8036472","8040639","1108","NA","NA","8036469","8041407","7917805","8036469","7510076","NA","8036472","1110","New experiment","NA","0","0","0","yes","1024"
"undefined","undefined","undefined","undefined","black","no","legacy","0","uniform","undefined","undefined","undefined","73","73","147","73","73","NA","73","73","0","0","0","73","73","0","73","0","NA","73","0","Thu 06 Jun 2019 12:43:32 PM PDT","500","1000","The main experiment item","yes","NA","ABX_v3.osexp","/home/ubuntu/Desktop/panara","yes","no","mono","no","18","no","white","no","yes","768","19","53","/home/ubuntu/Desktop/panara/subject-103.csv","Jazzy James","3.1.3","1.2.4.wav","1.2.2.wav","3.2.2.wav","0","1","space","1","NA","880","31124","880","NA","7508966","space","2","1024","2","48000","-16","experiment","3.2.2.wav","1.2.4.wav","1.2.2.wav","103","odd","8042574","8045120","8044620","8043839","7858219","NA","8041574","8045887","1108","NA","NA","8041571","8046767","7917805","8041571","7510076","NA","8041574","1110","New experiment","NA","0","0","0","yes","1024"
"undefined","undefined","undefined","undefined","black","no","legacy","0","uniform","undefined","undefined","undefined","74","74","149","74","74","NA","74","74","0","0","0","74","74","0","74","0","NA","74","0","Thu 06 Jun 2019 12:43:32 PM PDT","500","1000","The main experiment item","yes","NA","ABX_v3.osexp","/home/ubuntu/Desktop/panara","yes","no","mono","no","18","no","white","no","yes","768","20","53","/home/ubuntu/Desktop/panara/subject-103.csv","Jazzy James","3.1.3","4.1.4.wav","3.1.4.wav","3.1.2.wav","0","0","space","0","NA","1056","31124","1056","NA","7508966","space","2","1024","2","48000","-16","experiment","3.1.2.wav","4.1.4.wav","3.1.4.wav","103","odd","8047957","8050496","8049996","8049215","7858219","NA","8046957","8051278","1108","NA","NA","8046954","8052334","7917805","8046954","7510076","NA","8046957","1110","New experiment","NA","0","0","0","yes","1024"
"undefined","undefined","undefined","undefined","black","no","legacy","0","uniform","undefined","undefined","undefined","75","75","151","75","75","NA","75","75","0","0","0","75","75","0","75","0","NA","75","0","Thu 06 Jun 2019 12:43:32 PM PDT","500","1000","The main experiment item","yes","NA","ABX_v3.osexp","/home/ubuntu/Desktop/panara","yes","no","mono","no","18","no","white","no","yes","768","21","53","/home/ubuntu/Desktop/panara/subject-103.csv","Jazzy James","3.1.3","3.2.4.wav","4.2.4.wav","4.2.2.wav","0","0","space","0","NA","2010","31124","2010","NA","7508966","space","2","1024","2","48000","-16","experiment","4.2.2.wav","3.2.4.wav","4.2.4.wav","103","odd","8053515","8055983","8055483","8054762","7858219","NA","8052515","8056740","1108","NA","NA","8052512","8058751","7917805","8052512","7510076","NA","8052515","1110","New experiment","NA","0","0","0","yes","1024"
"undefined","undefined","undefined","undefined","black","no","legacy","0","uniform","undefined","undefined","undefined","76","76","153","76","76","NA","76","76","0","0","0","76","76","0","76","0","NA","76","0","Thu 06 Jun 2019 12:43:32 PM PDT","500","1000","The main experiment item","yes","NA","ABX_v3.osexp","/home/ubuntu/Desktop/panara","no","no","mono","no","18","no","white","no","yes","768","22","53","/home/ubuntu/Desktop/panara/subject-103.csv","Jazzy James","3.1.3","3.2.1.wav","3.2.3.wav","4.2.3.wav","0","1","space","1","NA","4025","31124","4025","NA","7508966","space","2","1024","2","48000","-16","experiment","3.2.1.wav","4.2.3.wav","3.2.3.wav","103","odd","8059925","8062433","8061933","8061183","7858219","NA","8058925","8063180","1108","NA","NA","8058922","8067205","7917805","8058922","7510076","NA","8058925","1110","New experiment","NA","0","0","0","yes","1024"
"undefined","undefined","undefined","undefined","black","no","legacy","0","uniform","undefined","undefined","undefined","77","77","155","77","77","NA","77","77","0","0","0","77","77","0","77","0","NA","77","0","Thu 06 Jun 2019 12:43:32 PM PDT","500","1000","The main experiment item","yes","NA","ABX_v3.osexp","/home/ubuntu/Desktop/panara","yes","no","mono","no","18","no","white","no","yes","768","23","53","/home/ubuntu/Desktop/panara/subject-103.csv","Jazzy James","3.1.3","2.2.5.wav","2.2.3.wav","4.2.3.wav","0","1","space","1","NA","2242","31124","2242","NA","7508966","space","2","1024","2","48000","-16","experiment","4.2.3.wav","2.2.5.wav","2.2.3.wav","103","odd","8068364","8070813","8070313","8069601","7858219","NA","8067364","8071563","1108","NA","NA","8067362","8073806","7917805","8067362","7510076","NA","8067364","1110","New experiment","NA","0","0","0","yes","1024"
"undefined","undefined","undefined","undefined","black","no","legacy","0","uniform","undefined","undefined","undefined","78","78","157","78","78","NA","78","78","0","0","0","78","78","0","78","0","NA","78","0","Thu 06 Jun 2019 12:43:32 PM PDT","500","1000","The main experiment item","yes","NA","ABX_v3.osexp","/home/ubuntu/Desktop/panara","no","no","mono","no","18","no","white","no","yes","768","24","53","/home/ubuntu/Desktop/panara/subject-103.csv","Jazzy James","3.1.3","1.2.3.wav","3.2.3.wav","3.2.5.wav","0","0","space","0","NA","1068","31124","1068","NA","7508966","space","2","1024","2","48000","-16","experiment","1.2.3.wav","3.2.5.wav","3.2.3.wav","103","odd","8074983","8077473","8076973","8076236","7858219","NA","8073983","8078256","1108","NA","NA","8073980","8079325","7917805","8073980","7510076","NA","8073983","1110","New experiment","NA","0","0","0","yes","1024"
"undefined","undefined","undefined","undefined","black","no","legacy","0","uniform","undefined","undefined","undefined","79","79","159","79","79","NA","79","79","0","0","0","79","79","0","79","0","NA","79","0","Thu 06 Jun 2019 12:43:32 PM PDT","500","1000","The main experiment item","yes","NA","ABX_v3.osexp","/home/ubuntu/Desktop/panara","yes","no","mono","no","18","no","white","no","yes","768","25","53","/home/ubuntu/Desktop/panara/subject-103.csv","Jazzy James","3.1.3","1.2.4.wav","1.2.2.wav","2.2.2.wav","0","0","space","0","NA","1228","31124","1228","NA","7508966","space","2","1024","2","48000","-16","experiment","2.2.2.wav","1.2.4.wav","1.2.2.wav","103","odd","8080486","8083002","8082502","8081727","7858219","NA","8079486","8083761","1108","NA","NA","8079484","8084989","7917805","8079484","7510076","NA","8079486","1110","New experiment","NA","0","0","0","yes","1024"
"undefined","undefined","undefined","undefined","black","no","legacy","0","uniform","undefined","undefined","undefined","80","80","161","80","80","NA","80","80","0","0","0","80","80","0","80","0","NA","80","0","Thu 06 Jun 2019 12:43:32 PM PDT","500","1000","The main experiment item","yes","NA","ABX_v3.osexp","/home/ubuntu/Desktop/panara","yes","no","mono","no","18","no","white","no","yes","768","26","53","/home/ubuntu/Desktop/panara/subject-103.csv","Jazzy James","3.1.3","3.2.5.wav","3.1.5.wav","3.1.3.wav","0","0","space","0","NA","1416","31124","1416","NA","7508966","space","2","1024","2","48000","-16","experiment","3.1.3.wav","3.2.5.wav","3.1.5.wav","103","odd","8086172","8088733","8088232","8087454","7858219","NA","8085171","8089476","1108","NA","NA","8085169","8090893","7917805","8085169","7510076","NA","8085172","1110","New experiment","NA","0","0","0","yes","1024"
"undefined","undefined","undefined","undefined","black","no","legacy","0","uniform","undefined","undefined","undefined","81","81","163","81","81","NA","81","81","0","0","0","81","81","0","81","0","NA","81","0","Thu 06 Jun 2019 12:43:32 PM PDT","500","1000","The main experiment item","yes","NA","ABX_v3.osexp","/home/ubuntu/Desktop/panara","yes","no","mono","no","18","no","white","no","yes","768","27","53","/home/ubuntu/Desktop/panara/subject-103.csv","Jazzy James","3.1.3","1.2.5.wav","1.2.3.wav","3.2.3.wav","0","1","space","1","NA","963","31124","963","NA","7508966","space","2","1024","2","48000","-16","experiment","3.2.3.wav","1.2.5.wav","1.2.3.wav","103","odd","8092051","8094620","8094120","8093341","7858219","NA","8091051","8095384","1108","NA","NA","8091049","8096348","7917805","8091049","7510076","NA","8091051","1110","New experiment","NA","0","0","0","yes","1024"
"undefined","undefined","undefined","undefined","black","no","legacy","0","uniform","undefined","undefined","undefined","82","82","165","82","82","NA","82","82","0","0","0","82","82","0","82","0","NA","82","0","Thu 06 Jun 2019 12:43:32 PM PDT","500","1000","The main experiment item","yes","NA","ABX_v3.osexp","/home/ubuntu/Desktop/panara","no","no","mono","no","18","no","white","no","yes","768","28","53","/home/ubuntu/Desktop/panara/subject-103.csv","Jazzy James","3.1.3","1.1.1.wav","2.1.1.wav","2.1.3.wav","0","0","space","0","NA","6356","31124","6356","NA","7508966","space","2","1024","2","48000","-16","experiment","1.1.1.wav","2.1.3.wav","2.1.1.wav","103","odd","8097531","8100074","8099574","8098828","7858219","NA","8096531","8100846","1108","NA","NA","8096529","8107203","7917805","8096528","7510076","NA","8096531","1110","New experiment","NA","0","0","0","yes","1024"
"undefined","undefined","undefined","undefined","black","no","legacy","0","uniform","undefined","undefined","undefined","83","83","167","83","83","NA","83","83","0","0","0","83","83","0","83","0","NA","83","0","Thu 06 Jun 2019 12:43:32 PM PDT","500","1000","The main experiment item","yes","NA","ABX_v3.osexp","/home/ubuntu/Desktop/panara","no","no","mono","no","18","no","white","no","yes","768","29","53","/home/ubuntu/Desktop/panara/subject-103.csv","Jazzy James","3.1.3","3.2.2.wav","3.2.4.wav","3.1.4.wav","0","1","space","1","NA","1725","31124","1725","NA","7508966","space","2","1024","2","48000","-16","experiment","3.2.2.wav","3.1.4.wav","3.2.4.wav","103","odd","8108359","8110905","8110405","8109669","7858219","NA","8107359","8111685","1108","NA","NA","8107357","8113411","7917805","8107357","7510076","NA","8107359","1110","New experiment","NA","0","0","0","yes","1024"
"undefined","undefined","undefined","undefined","black","no","legacy","0","uniform","undefined","undefined","undefined","84","84","169","84","84","NA","84","84","0","0","0","84","84","0","84","0","NA","84","0","Thu 06 Jun 2019 12:43:32 PM PDT","500","1000","The main experiment item","yes","NA","ABX_v3.osexp","/home/ubuntu/Desktop/panara","no","no","mono","no","18","no","white","no","yes","768","30","53","/home/ubuntu/Desktop/panara/subject-103.csv","Jazzy James","3.1.3","2.1.2.wav","1.1.2.wav","1.1.4.wav","0","1","space","1","NA","1273","31124","1273","NA","7508966","space","2","1024","2","48000","-16","experiment","2.1.2.wav","1.1.4.wav","1.1.2.wav","103","odd","8114588","8117177","8116677","8115853","7858219","NA","8113588","8117961","1108","NA","NA","8113586","8119234","7917805","8113586","7510076","NA","8113588","1110","New experiment","NA","0","0","0","yes","1024"
"undefined","undefined","undefined","undefined","black","no","legacy","0","uniform","undefined","undefined","undefined","85","85","171","85","85","NA","85","85","0","0","0","85","85","0","85","0","NA","85","0","Thu 06 Jun 2019 12:43:32 PM PDT","500","1000","The main experiment item","yes","NA","ABX_v3.osexp","/home/ubuntu/Desktop/panara","yes","no","mono","no","18","no","white","no","yes","768","31","53","/home/ubuntu/Desktop/panara/subject-103.csv","Jazzy James","3.1.3","4.2.3.wav","4.2.1.wav","4.1.1.wav","0","0","space","0","NA","2869","31124","2869","NA","7508966","space","2","1024","2","48000","-16","experiment","4.1.1.wav","4.2.3.wav","4.2.1.wav","103","odd","8120394","8122873","8122373","8121649","7858219","NA","8119394","8123588","1108","NA","NA","8119391","8126458","7917805","8119391","7510076","NA","8119394","1110","New experiment","NA","0","0","0","yes","1024"
"undefined","undefined","undefined","undefined","black","no","legacy","0","uniform","undefined","undefined","undefined","86","86","173","86","86","NA","86","86","0","0","0","86","86","0","86","0","NA","86","0","Thu 06 Jun 2019 12:43:32 PM PDT","500","1000","The main experiment item","yes","NA","ABX_v3.osexp","/home/ubuntu/Desktop/panara","no","no","mono","no","18","no","white","no","yes","768","32","53","/home/ubuntu/Desktop/panara/subject-103.csv","Jazzy James","3.1.3","4.1.3.wav","4.1.5.wav","4.2.5.wav","0","0","space","0","NA","1566","31124","1566","NA","7508966","space","2","1024","2","48000","-16","experiment","4.1.3.wav","4.2.5.wav","4.1.5.wav","103","odd","8127638","8130106","8129605","8128884","7858219","NA","8126638","8130819","1108","NA","NA","8126636","8132386","7917805","8126636","7510076","NA","8126638","1110","New experiment","NA","0","0","0","yes","1024"
"undefined","undefined","undefined","undefined","black","no","legacy","0","uniform","undefined","undefined","undefined","87","87","175","87","87","NA","87","87","0","0","0","87","87","0","87","0","NA","87","0","Thu 06 Jun 2019 12:43:32 PM PDT","500","1000","The main experiment item","yes","NA","ABX_v3.osexp","/home/ubuntu/Desktop/panara","yes","no","mono","no","18","no","white","no","yes","768","33","53","/home/ubuntu/Desktop/panara/subject-103.csv","Jazzy James","3.1.3","2.2.3.wav","2.1.3.wav","2.1.1.wav","0","0","space","0","NA","1154","31124","1154","NA","7508966","space","2","1024","2","48000","-16","experiment","2.1.1.wav","2.2.3.wav","2.1.3.wav","103","odd","8133550","8136007","8135507","8134776","7858219","NA","8132550","8136776","1108","NA","NA","8132548","8137930","7917805","8132548","7510076","NA","8132550","1110","New experiment","NA","0","0","0","yes","1024"
"undefined","undefined","undefined","undefined","black","no","legacy","0","uniform","undefined","undefined","undefined","88","88","177","88","88","NA","88","88","0","0","0","88","88","0","88","0","NA","88","0","Thu 06 Jun 2019 12:43:32 PM PDT","500","1000","The main experiment item","yes","NA","ABX_v3.osexp","/home/ubuntu/Desktop/panara","yes","no","mono","no","18","no","white","no","yes","768","34","53","/home/ubuntu/Desktop/panara/subject-103.csv","Jazzy James","3.1.3","4.2.5.wav","3.2.5.wav","3.2.3.wav","0","1","space","1","NA","2017","31124","2017","NA","7508966","space","2","1024","2","48000","-16","experiment","3.2.3.wav","4.2.5.wav","3.2.5.wav","103","odd","8139091","8141619","8141119","8140341","7858219","NA","8138091","8142367","1108","NA","NA","8138088","8144385","7917805","8138088","7510076","NA","8138091","1110","New experiment","NA","0","0","0","yes","1024"
"undefined","undefined","undefined","undefined","black","no","legacy","0","uniform","undefined","undefined","undefined","89","89","179","89","89","NA","89","89","0","0","0","89","89","0","89","0","NA","89","0","Thu 06 Jun 2019 12:43:32 PM PDT","500","1000","The main experiment item","yes","NA","ABX_v3.osexp","/home/ubuntu/Desktop/panara","no","no","mono","no","18","no","white","no","yes","768","35","53","/home/ubuntu/Desktop/panara/subject-103.csv","Jazzy James","3.1.3","4.1.1.wav","3.1.1.wav","3.1.3.wav","0","0","space","0","NA","1050","31124","1050","NA","7508966","space","2","1024","2","48000","-16","experiment","4.1.1.wav","3.1.3.wav","3.1.1.wav","103","odd","8145550","8148044","8147544","8146803","7858219","NA","8144550","8148807","1108","NA","NA","8144548","8149858","7917805","8144548","7510076","NA","8144550","1110","New experiment","NA","0","0","0","yes","1024"
"undefined","undefined","undefined","undefined","black","no","legacy","0","uniform","undefined","undefined","undefined","90","90","181","90","90","NA","90","90","0","0","0","90","90","0","90","0","NA","90","0","Thu 06 Jun 2019 12:43:32 PM PDT","500","1000","The main experiment item","yes","NA","ABX_v3.osexp","/home/ubuntu/Desktop/panara","yes","no","mono","no","18","no","white","no","yes","768","36","53","/home/ubuntu/Desktop/panara/subject-103.csv","Jazzy James","3.1.3","4.1.4.wav","4.2.4.wav","4.2.2.wav","0","0","space","0","NA","5914","31124","5914","NA","7508966","space","2","1024","2","48000","-16","experiment","4.2.2.wav","4.1.4.wav","4.2.4.wav","103","odd","8151014","8153459","8152959","8152244","7858219","NA","8150014","8154173","1108","NA","NA","8150011","8160088","7917805","8150011","7510076","NA","8150014","1110","New experiment","NA","0","0","0","yes","1024"
"undefined","undefined","undefined","undefined","black","no","legacy","0","uniform","undefined","undefined","undefined","91","91","183","91","91","NA","91","91","0","0","0","91","91","0","91","0","NA","91","0","Thu 06 Jun 2019 12:43:32 PM PDT","500","1000","The main experiment item","yes","NA","ABX_v3.osexp","/home/ubuntu/Desktop/panara","no","no","mono","no","18","no","white","no","yes","768","37","53","/home/ubuntu/Desktop/panara/subject-103.csv","Jazzy James","3.1.3","2.2.1.wav","2.1.1.wav","2.1.3.wav","0","0","space","0","NA","1102","31124","1102","NA","7508966","space","2","1024","2","48000","-16","experiment","2.2.1.wav","2.1.3.wav","2.1.1.wav","103","odd","8161261","8163724","8163224","8162484","7858219","NA","8160261","8164458","1108","NA","NA","8160259","8165561","7917805","8160259","7510076","NA","8160261","1110","New experiment","NA","0","0","0","yes","1024"
"undefined","undefined","undefined","undefined","black","no","legacy","0","uniform","undefined","undefined","undefined","92","92","185","92","92","NA","92","92","0","0","0","92","92","0","92","0","NA","92","0","Thu 06 Jun 2019 12:43:32 PM PDT","500","1000","The main experiment item","yes","NA","ABX_v3.osexp","/home/ubuntu/Desktop/panara","no","no","mono","no","18","no","white","no","yes","768","38","53","/home/ubuntu/Desktop/panara/subject-103.csv","Jazzy James","3.1.3","2.1.3.wav","2.1.5.wav","4.1.5.wav","0","1","space","1","NA","1038","31124","1038","NA","7508966","space","2","1024","2","48000","-16","experiment","2.1.3.wav","4.1.5.wav","2.1.5.wav","103","odd","8166750","8169262","8168762","8168011","7858219","NA","8165750","8169985","1108","NA","NA","8165747","8171024","7917805","8165747","7510076","NA","8165750","1110","New experiment","NA","0","0","0","yes","1024"
"undefined","undefined","undefined","undefined","black","no","legacy","0","uniform","undefined","undefined","undefined","93","93","187","93","93","NA","93","93","0","0","0","93","93","0","93","0","NA","93","0","Thu 06 Jun 2019 12:43:32 PM PDT","500","1000","The main experiment item","yes","NA","ABX_v3.osexp","/home/ubuntu/Desktop/panara","no","no","mono","no","18","no","white","no","yes","768","39","53","/home/ubuntu/Desktop/panara/subject-103.csv","Jazzy James","3.1.3","4.2.3.wav","4.1.3.wav","4.1.5.wav","0","1","space","1","NA","2042","31124","2042","NA","7508966","space","2","1024","2","48000","-16","experiment","4.2.3.wav","4.1.5.wav","4.1.3.wav","103","odd","8172190","8174701","8174201","8173451","7858219","NA","8171190","8175428","1108","NA","NA","8171188","8177471","7917805","8171188","7510076","NA","8171190","1110","New experiment","NA","0","0","0","yes","1024"
"undefined","undefined","undefined","undefined","black","no","legacy","0","uniform","undefined","undefined","undefined","94","94","189","94","94","NA","94","94","0","0","0","94","94","0","94","0","NA","94","0","Thu 06 Jun 2019 12:43:32 PM PDT","500","1000","The main experiment item","yes","NA","ABX_v3.osexp","/home/ubuntu/Desktop/panara","no","no","mono","no","18","no","white","no","yes","768","40","53","/home/ubuntu/Desktop/panara/subject-103.csv","Jazzy James","3.1.3","2.1.1.wav","1.1.1.wav","1.1.3.wav","0","0","space","0","NA","1023","31124","1023","NA","7508966","space","2","1024","2","48000","-16","experiment","2.1.1.wav","1.1.3.wav","1.1.1.wav","103","odd","8178639","8181166","8180666","8179894","7858219","NA","8177639","8181952","1108","NA","NA","8177637","8182976","7917805","8177636","7510076","NA","8177639","1110","New experiment","NA","0","0","0","yes","1024"
"undefined","undefined","undefined","undefined","black","no","legacy","0","uniform","undefined","undefined","undefined","95","95","191","95","95","NA","95","95","0","0","0","95","95","0","95","0","NA","95","0","Thu 06 Jun 2019 12:43:32 PM PDT","500","1000","The main experiment item","yes","NA","ABX_v3.osexp","/home/ubuntu/Desktop/panara","yes","no","mono","no","18","no","white","no","yes","768","41","53","/home/ubuntu/Desktop/panara/subject-103.csv","Jazzy James","3.1.3","2.1.4.wav","2.2.4.wav","2.2.2.wav","0","1","space","1","NA","1745","31124","1745","NA","7508966","space","2","1024","2","48000","-16","experiment","2.2.2.wav","2.1.4.wav","2.2.4.wav","103","odd","8184159","8186630","8186130","8185420","7858219","NA","8183159","8187349","1108","NA","NA","8183157","8189095","7917805","8183157","7510076","NA","8183159","1110","New experiment","NA","0","0","0","yes","1024"
"undefined","undefined","undefined","undefined","black","no","legacy","0","uniform","undefined","undefined","undefined","96","96","193","96","96","NA","96","96","0","0","0","96","96","0","96","0","NA","96","0","Thu 06 Jun 2019 12:43:32 PM PDT","500","1000","The main experiment item","yes","NA","ABX_v3.osexp","/home/ubuntu/Desktop/panara","no","no","mono","no","18","no","white","no","yes","768","42","53","/home/ubuntu/Desktop/panara/subject-103.csv","Jazzy James","3.1.3","2.1.1.wav","4.1.1.wav","4.1.3.wav","0","0","space","0","NA","766","31124","766","NA","7508966","space","2","1024","2","48000","-16","experiment","2.1.1.wav","4.1.3.wav","4.1.1.wav","103","odd","8190266","8192774","8192274","8191526","7858219","NA","8189266","8193488","1108","NA","NA","8189263","8194254","7917805","8189263","7510076","NA","8189266","1110","New experiment","NA","0","0","0","yes","1024"
"undefined","undefined","undefined","undefined","black","no","legacy","0","uniform","undefined","undefined","undefined","97","97","195","97","97","NA","97","97","0","0","0","97","97","0","97","0","NA","97","0","Thu 06 Jun 2019 12:43:32 PM PDT","500","1000","The main experiment item","yes","NA","ABX_v3.osexp","/home/ubuntu/Desktop/panara","yes","no","mono","no","18","no","white","no","yes","768","43","53","/home/ubuntu/Desktop/panara/subject-103.csv","Jazzy James","3.1.3","1.2.5.wav","1.2.3.wav","2.2.3.wav","0","1","space","1","NA","2587","31124","2587","NA","7508966","space","2","1024","2","48000","-16","experiment","2.2.3.wav","1.2.5.wav","1.2.3.wav","103","odd","8195421","8197982","8197482","8196698","7858219","NA","8194421","8198746","1108","NA","NA","8194419","8201334","7917805","8194419","7510076","NA","8194421","1110","New experiment","NA","0","0","0","yes","1024"
"undefined","undefined","undefined","undefined","black","no","legacy","0","uniform","undefined","undefined","undefined","98","98","197","98","98","NA","98","98","0","0","0","98","98","0","98","0","NA","98","0","Thu 06 Jun 2019 12:43:32 PM PDT","500","1000","The main experiment item","yes","NA","ABX_v3.osexp","/home/ubuntu/Desktop/panara","no","no","mono","no","18","no","white","no","yes","768","44","53","/home/ubuntu/Desktop/panara/subject-103.csv","Jazzy James","3.1.3","1.2.3.wav","1.2.5.wav","3.2.5.wav","0","1","space","1","NA","821","31124","821","NA","7508966","space","2","1024","2","48000","-16","experiment","1.2.3.wav","3.2.5.wav","1.2.5.wav","103","odd","8202518","8205092","8204592","8203805","7858219","NA","8201518","8205873","1108","NA","NA","8201516","8206695","7917805","8201516","7510076","NA","8201518","1110","New experiment","NA","0","0","0","yes","1024"
"undefined","undefined","undefined","undefined","black","no","legacy","0","uniform","undefined","undefined","undefined","99","99","199","99","99","NA","99","99","0","0","0","99","99","0","99","0","NA","99","0","Thu 06 Jun 2019 12:43:32 PM PDT","500","1000","The main experiment item","yes","NA","ABX_v3.osexp","/home/ubuntu/Desktop/panara","yes","no","mono","no","18","no","white","no","yes","768","45","53","/home/ubuntu/Desktop/panara/subject-103.csv","Jazzy James","3.1.3","3.2.4.wav","3.1.4.wav","3.1.2.wav","0","0","space","0","NA","2434","31124","2434","NA","7508966","space","2","1024","2","48000","-16","experiment","3.1.2.wav","3.2.4.wav","3.1.4.wav","103","odd","8207858","8210394","8209894","8209123","7858219","NA","8206857","8211179","1108","NA","NA","8206855","8213614","7917805","8206855","7510076","NA","8206858","1110","New experiment","NA","0","0","0","yes","1024"
"undefined","undefined","undefined","undefined","black","no","legacy","0","uniform","undefined","undefined","undefined","100","100","201","100","100","NA","100","100","0","0","0","100","100","0","100","0","NA","100","0","Thu 06 Jun 2019 12:43:32 PM PDT","500","1000","The main experiment item","yes","NA","ABX_v3.osexp","/home/ubuntu/Desktop/panara","no","no","mono","no","18","no","white","no","yes","768","46","53","/home/ubuntu/Desktop/panara/subject-103.csv","Jazzy James","3.1.3","3.1.1.wav","3.1.3.wav","1.1.3.wav","0","1","return","1","NA","930","28848","930","NA","7508966","space","2","1024","2","48000","-16","experiment","3.1.1.wav","1.1.3.wav","3.1.3.wav","103","odd","8243631","8246152","8245652","8244896","8213780","NA","8242630","8246929","1108","NA","NA","8213778","8247860","7917805","8213778","7510076","NA","8242631","1110","New experiment","NA","0","0","0","yes","1024"
"undefined","undefined","undefined","undefined","black","no","legacy","0","uniform","undefined","undefined","undefined","101","101","203","101","101","NA","101","101","0","0","0","101","101","0","101","0","NA","101","0","Thu 06 Jun 2019 12:43:32 PM PDT","500","1000","The main experiment item","yes","NA","ABX_v3.osexp","/home/ubuntu/Desktop/panara","no","no","mono","no","18","no","white","no","yes","768","47","53","/home/ubuntu/Desktop/panara/subject-103.csv","Jazzy James","3.1.3","3.1.1.wav","1.1.1.wav","1.1.3.wav","0","0","return","0","NA","798","28848","798","NA","7508966","space","2","1024","2","48000","-16","experiment","3.1.1.wav","1.1.3.wav","1.1.1.wav","103","odd","8249036","8251591","8251091","8250268","8213780","NA","8248036","8252364","1108","NA","NA","8248034","8253163","7917805","8248034","7510076","NA","8248036","1110","New experiment","NA","0","0","0","yes","1024"
"undefined","undefined","undefined","undefined","black","no","legacy","0","uniform","undefined","undefined","undefined","102","102","205","102","102","NA","102","102","0","0","0","102","102","0","102","0","NA","102","0","Thu 06 Jun 2019 12:43:32 PM PDT","500","1000","The main experiment item","yes","NA","ABX_v3.osexp","/home/ubuntu/Desktop/panara","no","no","mono","no","18","no","white","no","yes","768","48","53","/home/ubuntu/Desktop/panara/subject-103.csv","Jazzy James","3.1.3","4.2.3.wav","4.2.5.wav","2.2.5.wav","0","1","return","1","NA","4087","28848","4087","NA","7508966","space","2","1024","2","48000","-16","experiment","4.2.3.wav","2.2.5.wav","4.2.5.wav","103","odd","8254372","8256830","8256330","8255618","8213780","NA","8253371","8257580","1108","NA","NA","8253369","8261667","7917805","8253368","7510076","NA","8253371","1110","New experiment","NA","0","0","0","yes","1024"
"undefined","undefined","undefined","undefined","black","no","legacy","0","uniform","undefined","undefined","undefined","103","103","207","103","103","NA","103","103","0","0","0","103","103","0","103","0","NA","103","0","Thu 06 Jun 2019 12:43:32 PM PDT","500","1000","The main experiment item","yes","NA","ABX_v3.osexp","/home/ubuntu/Desktop/panara","no","no","mono","no","18","no","white","no","yes","768","49","53","/home/ubuntu/Desktop/panara/subject-103.csv","Jazzy James","3.1.3","2.2.1.wav","1.2.1.wav","1.2.3.wav","0","1","return","1","NA","1678","28848","1678","NA","7508966","space","2","1024","2","48000","-16","experiment","2.2.1.wav","1.2.3.wav","1.2.1.wav","103","odd","8262857","8265351","8264851","8264067","8213780","NA","8261857","8266124","1108","NA","NA","8261854","8267803","7917805","8261854","7510076","NA","8261857","1110","New experiment","NA","0","0","0","yes","1024"
"undefined","undefined","undefined","undefined","black","no","legacy","0","uniform","undefined","undefined","undefined","104","104","209","104","104","NA","104","104","0","0","0","104","104","0","104","0","NA","104","0","Thu 06 Jun 2019 12:43:32 PM PDT","500","1000","The main experiment item","yes","NA","ABX_v3.osexp","/home/ubuntu/Desktop/panara","yes","no","mono","no","18","no","white","no","yes","768","50","53","/home/ubuntu/Desktop/panara/subject-103.csv","Jazzy James","3.1.3","2.1.5.wav","2.2.5.wav","2.2.3.wav","0","0","return","0","NA","902","28848","902","NA","7508966","space","2","1024","2","48000","-16","experiment","2.2.3.wav","2.1.5.wav","2.2.5.wav","103","odd","8268973","8271486","8270986","8270235","8213780","NA","8267973","8272203","1108","NA","NA","8267971","8273106","7917805","8267971","7510076","NA","8267973","1110","New experiment","NA","0","0","0","yes","1024"
"undefined","undefined","undefined","undefined","black","no","legacy","0","uniform","undefined","undefined","undefined","105","105","211","105","105","NA","105","105","0","0","0","105","105","0","105","0","NA","105","0","Thu 06 Jun 2019 12:43:32 PM PDT","500","1000","The main experiment item","yes","NA","ABX_v3.osexp","/home/ubuntu/Desktop/panara","no","no","mono","no","18","no","white","no","yes","768","51","53","/home/ubuntu/Desktop/panara/subject-103.csv","Jazzy James","3.1.3","1.1.3.wav","1.1.5.wav","2.1.5.wav","0","0","return","0","NA","2188","28848","2188","NA","7508966","space","2","1024","2","48000","-16","experiment","1.1.3.wav","2.1.5.wav","1.1.5.wav","103","odd","8274290","8276865","8276365","8275580","8213780","NA","8273290","8277613","1108","NA","NA","8273288","8279802","7917805","8273288","7510076","NA","8273290","1110","New experiment","NA","0","0","0","yes","1024"
"undefined","undefined","undefined","undefined","black","no","legacy","0","uniform","undefined","undefined","undefined","106","106","213","106","106","NA","106","106","0","0","0","106","106","0","106","0","NA","106","0","Thu 06 Jun 2019 12:43:32 PM PDT","500","1000","The main experiment item","yes","NA","ABX_v3.osexp","/home/ubuntu/Desktop/panara","no","no","mono","no","18","no","white","no","yes","768","52","53","/home/ubuntu/Desktop/panara/subject-103.csv","Jazzy James","3.1.3","4.1.3.wav","2.1.3.wav","2.1.5.wav","0","0","return","0","NA","1185","28848","1185","NA","7508966","space","2","1024","2","48000","-16","experiment","4.1.3.wav","2.1.5.wav","2.1.3.wav","103","odd","8280992","8283477","8282977","8282237","8213780","NA","8279991","8284239","1108","NA","NA","8279989","8285425","7917805","8279989","7510076","NA","8279992","1110","New experiment","NA","0","0","0","yes","1024"
"undefined","undefined","undefined","undefined","black","no","legacy","0","uniform","undefined","undefined","undefined","107","107","215","107","107","NA","107","107","0","0","0","107","107","0","107","0","NA","107","0","Thu 06 Jun 2019 12:43:32 PM PDT","500","1000","The main experiment item","yes","NA","ABX_v3.osexp","/home/ubuntu/Desktop/panara","no","no","mono","no","18","no","white","no","yes","768","53","53","/home/ubuntu/Desktop/panara/subject-103.csv","Jazzy James","3.1.3","4.2.3.wav","4.2.5.wav","4.1.5.wav","0","0","return","0","NA","722","28848","722","NA","7508966","space","2","1024","2","48000","-16","experiment","4.2.3.wav","4.1.5.wav","4.2.5.wav","103","odd","8286615","8289094","8288594","8287868","8213780","NA","8285614","8289807","1108","NA","NA","8285612","8290529","7917805","8285612","7510076","NA","8285615","1110","New experiment","NA","0","0","0","yes","1024"
"undefined","undefined","undefined","undefined","black","no","legacy","0","uniform","undefined","undefined","undefined","108","108","217","108","108","NA","108","108","0","0","0","108","108","0","108","0","NA","108","0","Thu 06 Jun 2019 12:43:32 PM PDT","500","1000","The main experiment item","yes","NA","ABX_v3.osexp","/home/ubuntu/Desktop/panara","yes","no","mono","no","18","no","white","no","yes","768","54","53","/home/ubuntu/Desktop/panara/subject-103.csv","Jazzy James","3.1.3","3.1.3.wav","3.2.3.wav","3.2.1.wav","0","0","return","0","NA","3263","28848","3263","NA","7508966","space","2","1024","2","48000","-16","experiment","3.2.1.wav","3.1.3.wav","3.2.3.wav","103","odd","8291698","8294208","8293708","8292957","8213780","NA","8290698","8294952","1108","NA","NA","8290695","8298216","7917805","8290695","7510076","NA","8290698","1110","New experiment","NA","0","0","0","yes","1024"
"undefined","undefined","undefined","undefined","black","no","legacy","0","uniform","undefined","undefined","undefined","109","109","219","109","109","NA","109","109","0","0","0","109","109","0","109","0","NA","109","0","Thu 06 Jun 2019 12:43:32 PM PDT","500","1000","The main experiment item","yes","NA","ABX_v3.osexp","/home/ubuntu/Desktop/panara","no","no","mono","no","18","no","white","no","yes","768","55","53","/home/ubuntu/Desktop/panara/subject-103.csv","Jazzy James","3.1.3","3.1.1.wav","4.1.1.wav","4.1.3.wav","0","1","return","1","NA","1318","28848","1318","NA","7508966","space","2","1024","2","48000","-16","experiment","3.1.1.wav","4.1.3.wav","4.1.1.wav","103","odd","8299386","8301892","8301392","8300636","8213780","NA","8298386","8302602","1108","NA","NA","8298384","8303921","7917805","8298384","7510076","NA","8298386","1110","New experiment","NA","0","0","0","yes","1024"
"undefined","undefined","undefined","undefined","black","no","legacy","0","uniform","undefined","undefined","undefined","110","110","221","110","110","NA","110","110","0","0","0","110","110","0","110","0","NA","110","0","Thu 06 Jun 2019 12:43:32 PM PDT","500","1000","The main experiment item","yes","NA","ABX_v3.osexp","/home/ubuntu/Desktop/panara","yes","no","mono","no","18","no","white","no","yes","768","56","53","/home/ubuntu/Desktop/panara/subject-103.csv","Jazzy James","3.1.3","4.2.3.wav","4.2.1.wav","3.2.1.wav","0","0","return","0","NA","1910","28848","1910","NA","7508966","space","2","1024","2","48000","-16","experiment","3.2.1.wav","4.2.3.wav","4.2.1.wav","103","odd","8305058","8307540","8307040","8306320","8213780","NA","8304058","8308304","1108","NA","NA","8304055","8310215","7917805","8304055","7510076","NA","8304058","1110","New experiment","NA","0","0","0","yes","1024"
"undefined","undefined","undefined","undefined","black","no","legacy","0","uniform","undefined","undefined","undefined","111","111","223","111","111","NA","111","111","0","0","0","111","111","0","111","0","NA","111","0","Thu 06 Jun 2019 12:43:32 PM PDT","500","1000","The main experiment item","yes","NA","ABX_v3.osexp","/home/ubuntu/Desktop/panara","no","no","mono","no","18","no","white","no","yes","768","57","53","/home/ubuntu/Desktop/panara/subject-103.csv","Jazzy James","3.1.3","1.2.1.wav","1.1.1.wav","1.1.3.wav","0","0","return","0","NA","1714","28848","1714","NA","7508966","space","2","1024","2","48000","-16","experiment","1.2.1.wav","1.1.3.wav","1.1.1.wav","103","odd","8311404","8313961","8313461","8312686","8213780","NA","8310404","8314740","1108","NA","NA","8310401","8316455","7917805","8310401","7510076","NA","8310404","1110","New experiment","NA","0","0","0","yes","1024"
