"acc","accuracy","average_response_time","avg_rt","background","bidi","canvas_backend","compensation","coordinates","correct","correct_display_selecting","correct_welcome","count_A","count_B","count_ISI","count_X","count_break","count_determine_break","count_display_listening","count_display_selecting","count_experiment","count_finished","count_getting_started","count_new_inline_script","count_new_logger","count_new_loop","count_new_sequence","count_plain_block","count_setup_breaks","count_wait_nextitem","count_welcome","datetime","delay_ISI","delay_wait_nextitem","description","disable_garbage_collection","empty_column","experiment_file","experiment_path","flip_order","font_bold","font_family","font_italic","font_size","font_underline","foreground","form_clicks","fullscreen","height","live_row","live_row_plain_block","logfile","opensesame_codename","opensesame_version","play1","play2","play3","repeat_cycle","response","response_break","response_display_selecting","response_finished","response_time","response_time_break","response_time_display_selecting","response_time_finished","response_time_welcome","response_welcome","round_decimals","sound_buf_size","sound_channels","sound_freq","sound_sample_size","start","stimA","stimB","stimX","subject_nr","subject_parity","time_A","time_B","time_ISI","time_X","time_break","time_determine_break","time_display_listening","time_display_selecting","time_experiment","time_finished","time_getting_started","time_new_inline_script","time_new_logger","time_new_loop","time_new_sequence","time_plain_block","time_setup_breaks","time_wait_nextitem","time_welcome","title","to_break","total_correct","total_response_time","total_responses","uniform_coordinates","width"
"undefined","undefined","undefined","undefined","black","no","legacy","0","uniform","undefined","undefined","undefined","0","0","1","0","0","NA","0","0","0","0","0","0","0","0","0","0","NA","0","0","Mon 24 Jun 2019 01:24:14 PM PDT","500","1000","The main experiment item","yes","NA","ABX_v3.osexp","/home/ubuntu/Desktop/panara","no","no","mono","no","18","no","white","no","yes","768","0","0","/home/ubuntu/Desktop/panara/subject-108.csv","Jazzy James","3.1.3","3.1.3.wav","3.1.3.wav","3.1.5.wav","0","1","NA","1","NA","4425","NA","4425","NA","247784","space","2","1024","2","48000","-16","experiment","3.1.3.wav","3.1.5.wav","3.1.3.wav","108","even","249655","252167","251667","250915","NA","NA","248655","252948","764","NA","NA","248653","257374","NA","248652","248550","NA","248655","766","New experiment","NA","0","0","0","yes","1024"
"undefined","undefined","undefined","undefined","black","no","legacy","0","uniform","undefined","undefined","undefined","1","1","3","1","1","NA","1","1","0","0","0","1","1","0","1","0","NA","1","0","Mon 24 Jun 2019 01:24:14 PM PDT","500","1000","The main experiment item","yes","NA","ABX_v3.osexp","/home/ubuntu/Desktop/panara","no","no","mono","no","18","no","white","no","yes","768","1","1","/home/ubuntu/Desktop/panara/subject-108.csv","Jazzy James","3.1.3","3.2.1.wav","3.2.3.wav","3.2.3.wav","0","1","NA","1","NA","2778","NA","2778","NA","247784","space","2","1024","2","48000","-16","experiment","3.2.1.wav","3.2.3.wav","3.2.3.wav","108","even","258661","261168","260668","259918","NA","NA","257660","261923","764","NA","NA","257658","264701","NA","257658","248550","NA","257661","766","New experiment","NA","0","0","0","yes","1024"
"undefined","undefined","undefined","undefined","black","no","legacy","0","uniform","undefined","undefined","undefined","2","2","5","2","2","NA","2","2","0","0","0","2","2","0","2","0","NA","2","0","Mon 24 Jun 2019 01:24:14 PM PDT","500","1000","The main experiment item","yes","NA","ABX_v3.osexp","/home/ubuntu/Desktop/panara","yes","no","mono","no","18","no","white","no","yes","768","2","2","/home/ubuntu/Desktop/panara/subject-108.csv","Jazzy James","3.1.3","1.2.4.wav","1.2.4.wav","1.2.2.wav","0","1","NA","1","NA","2017","NA","2017","NA","247784","space","2","1024","2","48000","-16","experiment","1.2.2.wav","1.2.4.wav","1.2.4.wav","108","even","265907","268423","267923","267171","NA","NA","264907","269196","764","NA","NA","264904","271213","NA","264904","248550","NA","264907","766","New experiment","NA","0","0","0","yes","1024"
"undefined","undefined","undefined","undefined","black","no","legacy","0","uniform","undefined","undefined","undefined","3","3","7","3","3","NA","3","3","0","0","0","3","3","0","3","0","NA","3","0","Mon 24 Jun 2019 01:24:14 PM PDT","500","1000","The main experiment item","yes","NA","ABX_v3.osexp","/home/ubuntu/Desktop/panara","no","no","mono","no","18","no","white","no","yes","768","3","3","/home/ubuntu/Desktop/panara/subject-108.csv","Jazzy James","3.1.3","1.1.1.wav","1.1.1.wav","1.1.3.wav","0","0","NA","0","NA","1699","NA","1699","NA","247784","space","2","1024","2","48000","-16","experiment","1.1.1.wav","1.1.3.wav","1.1.1.wav","108","even","272422","275013","274513","273704","NA","NA","271422","275825","764","NA","NA","271419","277525","NA","271419","248550","NA","271422","766","New experiment","NA","0","0","0","yes","1024"
"undefined","undefined","undefined","undefined","black","no","legacy","0","uniform","undefined","undefined","undefined","4","4","9","4","4","NA","4","4","0","0","0","4","4","0","4","0","NA","4","0","Mon 24 Jun 2019 01:24:14 PM PDT","500","1000","The main experiment item","yes","NA","ABX_v3.osexp","/home/ubuntu/Desktop/panara","no","no","mono","no","18","no","white","no","yes","768","4","4","/home/ubuntu/Desktop/panara/subject-108.csv","Jazzy James","3.1.3","2.2.1.wav","2.2.1.wav","2.2.3.wav","0","1","NA","1","NA","881","NA","881","NA","247784","space","2","1024","2","48000","-16","experiment","2.2.1.wav","2.2.3.wav","2.2.1.wav","108","even","278680","281129","280629","279907","NA","NA","277680","281883","764","NA","NA","277677","282765","NA","277677","248550","NA","277680","766","New experiment","NA","0","0","0","yes","1024"
"undefined","undefined","undefined","undefined","black","no","legacy","0","uniform","undefined","undefined","undefined","5","5","11","5","5","NA","5","5","0","0","0","5","5","0","5","0","NA","5","0","Mon 24 Jun 2019 01:24:14 PM PDT","500","1000","The main experiment item","yes","NA","ABX_v3.osexp","/home/ubuntu/Desktop/panara","yes","no","mono","no","18","no","white","no","yes","768","5","5","/home/ubuntu/Desktop/panara/subject-108.csv","Jazzy James","3.1.3","1.2.3.wav","1.2.1.wav","1.2.1.wav","0","1","NA","1","NA","1123","NA","1123","NA","247784","space","2","1024","2","48000","-16","experiment","1.2.1.wav","1.2.3.wav","1.2.1.wav","108","even","283933","286503","286003","285224","NA","NA","282933","287281","764","NA","NA","282931","288404","NA","282930","248550","NA","282933","766","New experiment","NA","0","0","0","yes","1024"
"undefined","undefined","undefined","undefined","black","no","legacy","0","uniform","undefined","undefined","undefined","6","6","13","6","6","NA","6","6","0","0","0","6","6","0","6","0","NA","6","0","Mon 24 Jun 2019 01:24:14 PM PDT","500","1000","The main experiment item","yes","NA","ABX_v3.osexp","/home/ubuntu/Desktop/panara","no","no","mono","no","18","no","white","no","yes","768","6","6","/home/ubuntu/Desktop/panara/subject-108.csv","Jazzy James","3.1.3","2.1.2.wav","2.1.4.wav","2.1.4.wav","0","0","NA","0","NA","908","NA","908","NA","247784","space","2","1024","2","48000","-16","experiment","2.1.2.wav","2.1.4.wav","2.1.4.wav","108","even","289550","292338","291838","290808","NA","NA","288550","293103","764","NA","NA","288547","294011","NA","288547","248550","NA","288550","766","New experiment","NA","0","0","0","yes","1024"
"undefined","undefined","undefined","undefined","black","no","legacy","0","uniform","undefined","undefined","undefined","7","7","15","7","7","NA","7","7","0","0","0","7","7","0","7","0","NA","7","0","Mon 24 Jun 2019 01:24:14 PM PDT","500","1000","The main experiment item","yes","NA","ABX_v3.osexp","/home/ubuntu/Desktop/panara","no","no","mono","no","18","no","white","no","yes","768","7","7","/home/ubuntu/Desktop/panara/subject-108.csv","Jazzy James","3.1.3","1.2.3.wav","1.2.3.wav","1.2.5.wav","0","1","NA","1","NA","1131","NA","1131","NA","247784","space","2","1024","2","48000","-16","experiment","1.2.3.wav","1.2.5.wav","1.2.3.wav","108","even","295157","297687","297187","296410","NA","NA","294157","298456","764","NA","NA","294155","299588","NA","294155","248550","NA","294157","766","New experiment","NA","0","0","0","yes","1024"
"undefined","undefined","undefined","undefined","black","no","legacy","0","uniform","undefined","undefined","undefined","8","8","17","8","8","NA","8","8","0","0","0","8","8","0","8","0","NA","8","0","Mon 24 Jun 2019 01:24:14 PM PDT","500","1000","The main experiment item","yes","NA","ABX_v3.osexp","/home/ubuntu/Desktop/panara","yes","no","mono","no","18","no","white","no","yes","768","8","8","/home/ubuntu/Desktop/panara/subject-108.csv","Jazzy James","3.1.3","5.2.5.wav","5.2.3.wav","5.2.3.wav","0","0","NA","0","NA","1487","NA","1487","NA","247784","space","2","1024","2","48000","-16","experiment","5.2.3.wav","5.2.5.wav","5.2.3.wav","108","even","300784","303268","302768","302022","NA","NA","299784","304020","764","NA","NA","299781","305508","NA","299781","248550","NA","299784","766","New experiment","NA","0","0","0","yes","1024"
"undefined","undefined","undefined","undefined","black","no","legacy","0","uniform","undefined","undefined","undefined","9","9","19","9","9","NA","9","9","0","0","0","9","9","0","9","0","NA","9","0","Mon 24 Jun 2019 01:24:14 PM PDT","500","1000","The main experiment item","yes","NA","ABX_v3.osexp","/home/ubuntu/Desktop/panara","yes","no","mono","no","18","no","white","no","yes","768","9","9","/home/ubuntu/Desktop/panara/subject-108.csv","Jazzy James","3.1.3","4.1.4.wav","4.1.4.wav","4.1.2.wav","0","1","NA","1","NA","720","NA","720","NA","247784","space","2","1024","2","48000","-16","experiment","4.1.2.wav","4.1.4.wav","4.1.4.wav","108","even","306693","309169","308669","307936","NA","NA","305693","309907","764","NA","NA","305690","310627","NA","305690","248550","NA","305693","766","New experiment","NA","0","0","0","yes","1024"
"undefined","undefined","undefined","undefined","black","no","legacy","0","uniform","undefined","undefined","undefined","10","10","21","10","10","NA","10","10","0","0","0","10","10","0","10","0","NA","10","0","Mon 24 Jun 2019 01:24:14 PM PDT","500","1000","The main experiment item","yes","NA","ABX_v3.osexp","/home/ubuntu/Desktop/panara","yes","no","mono","no","18","no","white","no","yes","768","10","10","/home/ubuntu/Desktop/panara/subject-108.csv","Jazzy James","3.1.3","3.2.3.wav","3.2.1.wav","3.2.1.wav","0","1","NA","1","NA","1234","NA","1234","NA","247784","space","2","1024","2","48000","-16","experiment","3.2.1.wav","3.2.3.wav","3.2.1.wav","108","even","311812","314309","313809","313056","NA","NA","310812","315097","764","NA","NA","310810","316331","NA","310810","248550","NA","310812","766","New experiment","NA","0","0","0","yes","1024"
"undefined","undefined","undefined","undefined","black","no","legacy","0","uniform","undefined","undefined","undefined","11","11","23","11","11","NA","11","11","0","0","0","11","11","0","11","0","NA","11","0","Mon 24 Jun 2019 01:24:14 PM PDT","500","1000","The main experiment item","yes","NA","ABX_v3.osexp","/home/ubuntu/Desktop/panara","yes","no","mono","no","18","no","white","no","yes","768","11","11","/home/ubuntu/Desktop/panara/subject-108.csv","Jazzy James","3.1.3","1.2.4.wav","1.2.2.wav","1.2.2.wav","0","0","NA","0","NA","3420","NA","3420","NA","247784","space","2","1024","2","48000","-16","experiment","1.2.2.wav","1.2.4.wav","1.2.2.wav","108","even","317510","320044","319544","318772","NA","NA","316510","320831","764","NA","NA","316507","324251","NA","316507","248550","NA","316510","766","New experiment","NA","0","0","0","yes","1024"
"undefined","undefined","undefined","undefined","black","no","legacy","0","uniform","undefined","undefined","undefined","12","12","25","12","12","NA","12","12","0","0","0","12","12","0","12","0","NA","12","0","Mon 24 Jun 2019 01:24:14 PM PDT","500","1000","The main experiment item","yes","NA","ABX_v3.osexp","/home/ubuntu/Desktop/panara","yes","no","mono","no","18","no","white","no","yes","768","12","12","/home/ubuntu/Desktop/panara/subject-108.csv","Jazzy James","3.1.3","5.2.4.wav","5.2.4.wav","5.2.2.wav","0","0","NA","0","NA","697","NA","697","NA","247784","space","2","1024","2","48000","-16","experiment","5.2.2.wav","5.2.4.wav","5.2.4.wav","108","even","325419","327941","327441","326709","NA","NA","324418","328641","764","NA","NA","324416","329339","NA","324416","248550","NA","324419","766","New experiment","NA","0","0","0","yes","1024"
"undefined","undefined","undefined","undefined","black","no","legacy","0","uniform","undefined","undefined","undefined","13","13","27","13","13","NA","13","13","0","0","0","13","13","0","13","0","NA","13","0","Mon 24 Jun 2019 01:24:14 PM PDT","500","1000","The main experiment item","yes","NA","ABX_v3.osexp","/home/ubuntu/Desktop/panara","no","no","mono","no","18","no","white","no","yes","768","13","13","/home/ubuntu/Desktop/panara/subject-108.csv","Jazzy James","3.1.3","2.1.1.wav","2.1.1.wav","2.1.3.wav","0","1","NA","1","NA","613","NA","613","NA","247784","space","2","1024","2","48000","-16","experiment","2.1.1.wav","2.1.3.wav","2.1.1.wav","108","even","330512","332996","332496","331755","NA","NA","329512","333741","764","NA","NA","329510","334354","NA","329510","248550","NA","329512","766","New experiment","NA","0","0","0","yes","1024"
"undefined","undefined","undefined","undefined","black","no","legacy","0","uniform","undefined","undefined","undefined","14","14","29","14","14","NA","14","14","0","0","0","14","14","0","14","0","NA","14","0","Mon 24 Jun 2019 01:24:14 PM PDT","500","1000","The main experiment item","yes","NA","ABX_v3.osexp","/home/ubuntu/Desktop/panara","no","no","mono","no","18","no","white","no","yes","768","14","14","/home/ubuntu/Desktop/panara/subject-108.csv","Jazzy James","3.1.3","4.2.1.wav","4.2.3.wav","4.2.3.wav","0","1","NA","1","NA","740","NA","740","NA","247784","space","2","1024","2","48000","-16","experiment","4.2.1.wav","4.2.3.wav","4.2.3.wav","108","even","335524","338012","337512","336750","NA","NA","334523","338766","764","NA","NA","334521","339506","NA","334520","248550","NA","334524","766","New experiment","NA","0","0","0","yes","1024"
"undefined","undefined","undefined","undefined","black","no","legacy","0","uniform","undefined","undefined","undefined","15","15","31","15","15","NA","15","15","0","0","0","15","15","0","15","0","NA","15","0","Mon 24 Jun 2019 01:24:14 PM PDT","500","1000","The main experiment item","yes","NA","ABX_v3.osexp","/home/ubuntu/Desktop/panara","no","no","mono","no","18","no","white","no","yes","768","15","15","/home/ubuntu/Desktop/panara/subject-108.csv","Jazzy James","3.1.3","2.1.3.wav","2.1.5.wav","2.1.5.wav","0","0","NA","0","NA","343","NA","343","NA","247784","space","2","1024","2","48000","-16","experiment","2.1.3.wav","2.1.5.wav","2.1.5.wav","108","even","340665","343171","342671","341892","NA","NA","339664","343907","764","NA","NA","339662","344250","NA","339662","248550","NA","339665","766","New experiment","NA","0","0","0","yes","1024"
"undefined","undefined","undefined","undefined","black","no","legacy","0","uniform","undefined","undefined","undefined","16","16","33","16","16","NA","16","16","0","0","0","16","16","0","16","0","NA","16","0","Mon 24 Jun 2019 01:24:14 PM PDT","500","1000","The main experiment item","yes","NA","ABX_v3.osexp","/home/ubuntu/Desktop/panara","no","no","mono","no","18","no","white","no","yes","768","16","16","/home/ubuntu/Desktop/panara/subject-108.csv","Jazzy James","3.1.3","2.2.3.wav","2.2.3.wav","2.2.5.wav","0","1","NA","1","NA","578","NA","578","NA","247784","space","2","1024","2","48000","-16","experiment","2.2.3.wav","2.2.5.wav","2.2.3.wav","108","even","345435","347871","347371","346645","NA","NA","344434","348584","764","NA","NA","344432","349162","NA","344432","248550","NA","344435","766","New experiment","NA","0","0","0","yes","1024"
"undefined","undefined","undefined","undefined","black","no","legacy","0","uniform","undefined","undefined","undefined","17","17","35","17","17","NA","17","17","0","0","0","17","17","0","17","0","NA","17","0","Mon 24 Jun 2019 01:24:14 PM PDT","500","1000","The main experiment item","yes","NA","ABX_v3.osexp","/home/ubuntu/Desktop/panara","yes","no","mono","no","18","no","white","no","yes","768","17","17","/home/ubuntu/Desktop/panara/subject-108.csv","Jazzy James","3.1.3","4.1.5.wav","4.1.3.wav","4.1.3.wav","0","0","NA","0","NA","505","NA","505","NA","247784","space","2","1024","2","48000","-16","experiment","4.1.3.wav","4.1.5.wav","4.1.3.wav","108","even","350331","352793","352293","351531","NA","NA","349331","353536","764","NA","NA","349329","354042","NA","349329","248550","NA","349331","766","New experiment","NA","0","0","0","yes","1024"
"undefined","undefined","undefined","undefined","black","no","legacy","0","uniform","undefined","undefined","undefined","18","18","37","18","18","NA","18","18","0","0","0","18","18","0","18","0","NA","18","0","Mon 24 Jun 2019 01:24:14 PM PDT","500","1000","The main experiment item","yes","NA","ABX_v3.osexp","/home/ubuntu/Desktop/panara","no","no","mono","no","18","no","white","no","yes","768","18","18","/home/ubuntu/Desktop/panara/subject-108.csv","Jazzy James","3.1.3","1.1.2.wav","1.1.2.wav","1.1.4.wav","0","1","NA","1","NA","588","NA","588","NA","247784","space","2","1024","2","48000","-16","experiment","1.1.2.wav","1.1.4.wav","1.1.2.wav","108","even","355239","357844","357344","356553","NA","NA","354239","358637","764","NA","NA","354237","359226","NA","354236","248550","NA","354239","766","New experiment","NA","0","0","0","yes","1024"
"undefined","undefined","undefined","undefined","black","no","legacy","0","uniform","undefined","undefined","undefined","19","19","39","19","19","NA","19","19","0","0","0","19","19","0","19","0","NA","19","0","Mon 24 Jun 2019 01:24:14 PM PDT","500","1000","The main experiment item","yes","NA","ABX_v3.osexp","/home/ubuntu/Desktop/panara","yes","no","mono","no","18","no","white","no","yes","768","19","19","/home/ubuntu/Desktop/panara/subject-108.csv","Jazzy James","3.1.3","3.1.3.wav","3.1.1.wav","3.1.1.wav","0","0","NA","0","NA","472","NA","472","NA","247784","space","2","1024","2","48000","-16","experiment","3.1.1.wav","3.1.3.wav","3.1.1.wav","108","even","360360","362840","362340","361607","NA","NA","359359","363585","764","NA","NA","359357","364057","NA","359357","248550","NA","359360","766","New experiment","NA","0","0","0","yes","1024"
"undefined","undefined","undefined","undefined","black","no","legacy","0","uniform","undefined","undefined","undefined","20","20","41","20","20","NA","20","20","0","0","0","20","20","0","20","0","NA","20","0","Mon 24 Jun 2019 01:24:14 PM PDT","500","1000","The main experiment item","yes","NA","ABX_v3.osexp","/home/ubuntu/Desktop/panara","yes","no","mono","no","18","no","white","no","yes","768","20","20","/home/ubuntu/Desktop/panara/subject-108.csv","Jazzy James","3.1.3","1.2.3.wav","1.2.3.wav","1.2.1.wav","0","1","NA","1","NA","565","NA","565","NA","247784","space","2","1024","2","48000","-16","experiment","1.2.1.wav","1.2.3.wav","1.2.3.wav","108","even","365226","367794","367294","366510","NA","NA","364226","368572","764","NA","NA","364224","369137","NA","364223","248550","NA","364226","766","New experiment","NA","0","0","0","yes","1024"
"undefined","undefined","undefined","undefined","black","no","legacy","0","uniform","undefined","undefined","undefined","21","21","43","21","21","NA","21","21","0","0","0","21","21","0","21","0","NA","21","0","Mon 24 Jun 2019 01:24:14 PM PDT","500","1000","The main experiment item","yes","NA","ABX_v3.osexp","/home/ubuntu/Desktop/panara","yes","no","mono","no","18","no","white","no","yes","768","21","21","/home/ubuntu/Desktop/panara/subject-108.csv","Jazzy James","3.1.3","4.2.4.wav","4.2.2.wav","4.2.2.wav","0","0","NA","0","NA","483","NA","483","NA","247784","space","2","1024","2","48000","-16","experiment","4.2.2.wav","4.2.4.wav","4.2.2.wav","108","even","370306","372740","372240","371527","NA","NA","369305","373454","764","NA","NA","369303","373937","NA","369303","248550","NA","369306","766","New experiment","NA","0","0","0","yes","1024"
"undefined","undefined","undefined","undefined","black","no","legacy","0","uniform","undefined","undefined","undefined","22","22","45","22","22","NA","22","22","0","0","0","22","22","0","22","0","NA","22","0","Mon 24 Jun 2019 01:24:14 PM PDT","500","1000","The main experiment item","yes","NA","ABX_v3.osexp","/home/ubuntu/Desktop/panara","no","no","mono","no","18","no","white","no","yes","768","22","22","/home/ubuntu/Desktop/panara/subject-108.csv","Jazzy James","3.1.3","5.2.1.wav","5.2.3.wav","5.2.3.wav","0","1","NA","1","NA","546","NA","546","NA","247784","space","2","1024","2","48000","-16","experiment","5.2.1.wav","5.2.3.wav","5.2.3.wav","108","even","375117","377544","377044","376319","NA","NA","374117","378262","764","NA","NA","374114","378809","NA","374114","248550","NA","374117","766","New experiment","NA","0","0","0","yes","1024"
"undefined","undefined","undefined","undefined","black","no","legacy","0","uniform","undefined","undefined","undefined","23","23","47","23","23","NA","23","23","0","0","0","23","23","0","23","0","NA","23","0","Mon 24 Jun 2019 01:24:14 PM PDT","500","1000","The main experiment item","yes","NA","ABX_v3.osexp","/home/ubuntu/Desktop/panara","no","no","mono","no","18","no","white","no","yes","768","23","23","/home/ubuntu/Desktop/panara/subject-108.csv","Jazzy James","3.1.3","2.2.1.wav","2.2.3.wav","2.2.3.wav","0","1","NA","1","NA","573","NA","573","NA","247784","space","2","1024","2","48000","-16","experiment","2.2.1.wav","2.2.3.wav","2.2.3.wav","108","even","379994","382419","381919","381209","NA","NA","378993","383147","764","NA","NA","378991","383720","NA","378991","248550","NA","378994","766","New experiment","NA","0","0","0","yes","1024"
"undefined","undefined","undefined","undefined","black","no","legacy","0","uniform","undefined","undefined","undefined","24","24","49","24","24","NA","24","24","0","0","0","24","24","0","24","0","NA","24","0","Mon 24 Jun 2019 01:24:14 PM PDT","500","1000","The main experiment item","yes","NA","ABX_v3.osexp","/home/ubuntu/Desktop/panara","yes","no","mono","no","18","no","white","no","yes","768","24","24","/home/ubuntu/Desktop/panara/subject-108.csv","Jazzy James","3.1.3","4.1.4.wav","4.1.2.wav","4.1.2.wav","0","0","NA","0","NA","921","NA","921","NA","247784","space","2","1024","2","48000","-16","experiment","4.1.2.wav","4.1.4.wav","4.1.2.wav","108","even","384873","387351","386851","386136","NA","NA","383873","388070","764","NA","NA","383870","388991","NA","383870","248550","NA","383873","766","New experiment","NA","0","0","0","yes","1024"
"undefined","undefined","undefined","undefined","black","no","legacy","0","uniform","undefined","undefined","undefined","25","25","51","25","25","NA","25","25","0","0","0","25","25","0","25","0","NA","25","0","Mon 24 Jun 2019 01:24:14 PM PDT","500","1000","The main experiment item","yes","NA","ABX_v3.osexp","/home/ubuntu/Desktop/panara","yes","no","mono","no","18","no","white","no","yes","768","25","25","/home/ubuntu/Desktop/panara/subject-108.csv","Jazzy James","3.1.3","2.2.4.wav","2.2.4.wav","2.2.2.wav","0","1","NA","1","NA","438","NA","438","NA","247784","space","2","1024","2","48000","-16","experiment","2.2.2.wav","2.2.4.wav","2.2.4.wav","108","even","390159","392604","392104","391379","NA","NA","389158","393313","764","NA","NA","389156","393751","NA","389156","248550","NA","389159","766","New experiment","NA","0","0","0","yes","1024"
"undefined","undefined","undefined","undefined","black","no","legacy","0","uniform","undefined","undefined","undefined","26","26","53","26","26","NA","26","26","0","0","0","26","26","0","26","0","NA","26","0","Mon 24 Jun 2019 01:24:14 PM PDT","500","1000","The main experiment item","yes","NA","ABX_v3.osexp","/home/ubuntu/Desktop/panara","yes","no","mono","no","18","no","white","no","yes","768","26","26","/home/ubuntu/Desktop/panara/subject-108.csv","Jazzy James","3.1.3","1.1.3.wav","1.1.3.wav","1.1.1.wav","0","0","NA","0","NA","438","NA","438","NA","247784","space","2","1024","2","48000","-16","experiment","1.1.1.wav","1.1.3.wav","1.1.3.wav","108","even","394897","397504","397004","396204","NA","NA","393896","398312","764","NA","NA","393894","398750","NA","393894","248550","NA","393897","766","New experiment","NA","0","0","0","yes","1024"
"undefined","undefined","undefined","undefined","black","no","legacy","0","uniform","undefined","undefined","undefined","27","27","55","27","27","NA","27","27","0","0","0","27","27","0","27","0","NA","27","0","Mon 24 Jun 2019 01:24:14 PM PDT","500","1000","The main experiment item","yes","NA","ABX_v3.osexp","/home/ubuntu/Desktop/panara","yes","no","mono","no","18","no","white","no","yes","768","27","27","/home/ubuntu/Desktop/panara/subject-108.csv","Jazzy James","3.1.3","4.2.3.wav","4.2.1.wav","4.2.1.wav","0","1","NA","1","NA","471","NA","471","NA","247784","space","2","1024","2","48000","-16","experiment","4.2.1.wav","4.2.3.wav","4.2.1.wav","108","even","399932","402416","401916","401193","NA","NA","398932","403150","764","NA","NA","398929","403622","NA","398929","248550","NA","398932","766","New experiment","NA","0","0","0","yes","1024"
"undefined","undefined","undefined","undefined","black","no","legacy","0","uniform","undefined","undefined","undefined","28","28","57","28","28","NA","28","28","0","0","0","28","28","0","28","0","NA","28","0","Mon 24 Jun 2019 01:24:14 PM PDT","500","1000","The main experiment item","yes","NA","ABX_v3.osexp","/home/ubuntu/Desktop/panara","no","no","mono","no","18","no","white","no","yes","768","28","28","/home/ubuntu/Desktop/panara/subject-108.csv","Jazzy James","3.1.3","1.2.3.wav","1.2.5.wav","1.2.5.wav","0","0","NA","0","NA","383","NA","383","NA","247784","space","2","1024","2","48000","-16","experiment","1.2.3.wav","1.2.5.wav","1.2.5.wav","108","even","404781","407294","406794","406042","NA","NA","403781","408086","764","NA","NA","403779","408469","NA","403779","248550","NA","403781","766","New experiment","NA","0","0","0","yes","1024"
"undefined","undefined","undefined","undefined","black","no","legacy","0","uniform","undefined","undefined","undefined","29","29","59","29","29","NA","29","29","0","0","0","29","29","0","29","0","NA","29","0","Mon 24 Jun 2019 01:24:14 PM PDT","500","1000","The main experiment item","yes","NA","ABX_v3.osexp","/home/ubuntu/Desktop/panara","yes","no","mono","no","18","no","white","no","yes","768","29","29","/home/ubuntu/Desktop/panara/subject-108.csv","Jazzy James","3.1.3","3.1.4.wav","3.1.4.wav","3.1.2.wav","0","1","NA","1","NA","512","NA","512","NA","247784","space","2","1024","2","48000","-16","experiment","3.1.2.wav","3.1.4.wav","3.1.4.wav","108","even","409671","412211","411711","410944","NA","NA","408671","412988","764","NA","NA","408668","413501","NA","408668","248550","NA","408671","766","New experiment","NA","0","0","0","yes","1024"
"undefined","undefined","undefined","undefined","black","no","legacy","0","uniform","undefined","undefined","undefined","30","30","61","30","30","NA","30","30","0","0","0","30","30","0","30","0","NA","30","0","Mon 24 Jun 2019 01:24:14 PM PDT","500","1000","The main experiment item","yes","NA","ABX_v3.osexp","/home/ubuntu/Desktop/panara","yes","no","mono","no","18","no","white","no","yes","768","30","30","/home/ubuntu/Desktop/panara/subject-108.csv","Jazzy James","3.1.3","2.1.5.wav","2.1.3.wav","2.1.3.wav","0","1","NA","1","NA","711","NA","711","NA","247784","space","2","1024","2","48000","-16","experiment","2.1.3.wav","2.1.5.wav","2.1.3.wav","108","even","414661","417173","416673","415922","NA","NA","413661","417909","764","NA","NA","413658","418620","NA","413658","248550","NA","413661","766","New experiment","NA","0","0","0","yes","1024"
"undefined","undefined","undefined","undefined","black","no","legacy","0","uniform","undefined","undefined","undefined","31","31","63","31","31","NA","31","31","0","0","0","31","31","0","31","0","NA","31","0","Mon 24 Jun 2019 01:24:14 PM PDT","500","1000","The main experiment item","yes","NA","ABX_v3.osexp","/home/ubuntu/Desktop/panara","yes","no","mono","no","18","no","white","no","yes","768","31","31","/home/ubuntu/Desktop/panara/subject-108.csv","Jazzy James","3.1.3","3.1.3.wav","3.1.3.wav","3.1.1.wav","0","1","NA","1","NA","670","NA","670","NA","247784","space","2","1024","2","48000","-16","experiment","3.1.1.wav","3.1.3.wav","3.1.3.wav","108","even","419763","422231","421731","420984","NA","NA","418763","422966","764","NA","NA","418760","423636","NA","418760","248550","NA","418763","766","New experiment","NA","0","0","0","yes","1024"
"undefined","undefined","undefined","undefined","black","no","legacy","0","uniform","undefined","undefined","undefined","32","32","65","32","32","NA","32","32","0","0","0","32","32","0","32","0","NA","32","0","Mon 24 Jun 2019 01:24:14 PM PDT","500","1000","The main experiment item","yes","NA","ABX_v3.osexp","/home/ubuntu/Desktop/panara","no","no","mono","no","18","no","white","no","yes","768","32","32","/home/ubuntu/Desktop/panara/subject-108.csv","Jazzy James","3.1.3","4.1.1.wav","4.1.3.wav","4.1.3.wav","0","0","NA","0","NA","548","NA","548","NA","247784","space","2","1024","2","48000","-16","experiment","4.1.1.wav","4.1.3.wav","4.1.3.wav","108","even","424869","427327","426827","426106","NA","NA","423868","428071","764","NA","NA","423865","428620","NA","423865","248550","NA","423869","766","New experiment","NA","0","0","0","yes","1024"
"undefined","undefined","undefined","undefined","black","no","legacy","0","uniform","undefined","undefined","undefined","33","33","67","33","33","NA","33","33","0","0","0","33","33","0","33","0","NA","33","0","Mon 24 Jun 2019 01:24:14 PM PDT","500","1000","The main experiment item","yes","NA","ABX_v3.osexp","/home/ubuntu/Desktop/panara","no","no","mono","no","18","no","white","no","yes","768","33","33","/home/ubuntu/Desktop/panara/subject-108.csv","Jazzy James","3.1.3","3.2.2.wav","3.2.2.wav","3.2.4.wav","0","1","NA","1","NA","754","NA","754","NA","247784","space","2","1024","2","48000","-16","experiment","3.2.2.wav","3.2.4.wav","3.2.2.wav","108","even","429832","432343","431843","431081","NA","NA","428832","433121","764","NA","NA","428829","433875","NA","428829","248550","NA","428832","766","New experiment","NA","0","0","0","yes","1024"
"undefined","undefined","undefined","undefined","black","no","legacy","0","uniform","undefined","undefined","undefined","34","34","69","34","34","NA","34","34","0","0","0","34","34","0","34","0","NA","34","0","Mon 24 Jun 2019 01:24:14 PM PDT","500","1000","The main experiment item","yes","NA","ABX_v3.osexp","/home/ubuntu/Desktop/panara","no","no","mono","no","18","no","white","no","yes","768","34","34","/home/ubuntu/Desktop/panara/subject-108.csv","Jazzy James","3.1.3","1.1.3.wav","1.1.3.wav","1.1.5.wav","0","1","NA","1","NA","1029","NA","1029","NA","247784","space","2","1024","2","48000","-16","experiment","1.1.3.wav","1.1.5.wav","1.1.3.wav","108","even","435131","437709","437209","436414","NA","NA","434130","438501","764","NA","NA","434127","439531","NA","434127","248550","NA","434131","766","New experiment","NA","0","0","0","yes","1024"
"undefined","undefined","undefined","undefined","black","no","legacy","0","uniform","undefined","undefined","undefined","35","35","71","35","35","NA","35","35","0","0","0","35","35","0","35","0","NA","35","0","Mon 24 Jun 2019 01:24:14 PM PDT","500","1000","The main experiment item","yes","NA","ABX_v3.osexp","/home/ubuntu/Desktop/panara","no","no","mono","no","18","no","white","no","yes","768","35","35","/home/ubuntu/Desktop/panara/subject-108.csv","Jazzy James","3.1.3","1.1.2.wav","1.1.4.wav","1.1.4.wav","0","0","NA","0","NA","198","NA","198","NA","247784","space","2","1024","2","48000","-16","experiment","1.1.2.wav","1.1.4.wav","1.1.4.wav","108","even","440674","443287","442787","442006","NA","NA","439674","444060","764","NA","NA","439671","444258","NA","439671","248550","NA","439674","766","New experiment","NA","0","0","0","yes","1024"
"undefined","undefined","undefined","undefined","black","no","legacy","0","uniform","undefined","undefined","undefined","36","36","73","36","36","NA","36","36","0","0","0","36","36","0","36","0","NA","36","0","Mon 24 Jun 2019 01:24:14 PM PDT","500","1000","The main experiment item","yes","NA","ABX_v3.osexp","/home/ubuntu/Desktop/panara","no","no","mono","no","18","no","white","no","yes","768","36","36","/home/ubuntu/Desktop/panara/subject-108.csv","Jazzy James","3.1.3","3.2.2.wav","3.2.4.wav","3.2.4.wav","0","1","NA","1","NA","817","NA","817","NA","247784","space","2","1024","2","48000","-16","experiment","3.2.2.wav","3.2.4.wav","3.2.4.wav","108","even","445403","447898","447398","446657","NA","NA","444402","448632","764","NA","NA","444400","449450","NA","444400","248550","NA","444403","766","New experiment","NA","0","0","0","yes","1024"
"undefined","undefined","undefined","undefined","black","no","legacy","0","uniform","undefined","undefined","undefined","37","37","75","37","37","NA","37","37","0","0","0","37","37","0","37","0","NA","37","0","Mon 24 Jun 2019 01:24:14 PM PDT","500","1000","The main experiment item","yes","NA","ABX_v3.osexp","/home/ubuntu/Desktop/panara","yes","no","mono","no","18","no","white","no","yes","768","37","37","/home/ubuntu/Desktop/panara/subject-108.csv","Jazzy James","3.1.3","4.2.5.wav","4.2.3.wav","4.2.3.wav","0","0","NA","0","NA","532","NA","532","NA","247784","space","2","1024","2","48000","-16","experiment","4.2.3.wav","4.2.5.wav","4.2.3.wav","108","even","450613","453094","452594","451862","NA","NA","449613","453861","764","NA","NA","449611","454393","NA","449610","248550","NA","449613","766","New experiment","NA","0","0","0","yes","1024"
"undefined","undefined","undefined","undefined","black","no","legacy","0","uniform","undefined","undefined","undefined","38","38","77","38","38","NA","38","38","0","0","0","38","38","0","38","0","NA","38","0","Mon 24 Jun 2019 01:24:14 PM PDT","500","1000","The main experiment item","yes","NA","ABX_v3.osexp","/home/ubuntu/Desktop/panara","no","no","mono","no","18","no","white","no","yes","768","38","38","/home/ubuntu/Desktop/panara/subject-108.csv","Jazzy James","3.1.3","2.1.1.wav","2.1.3.wav","2.1.3.wav","0","0","NA","0","NA","771","NA","771","NA","247784","space","2","1024","2","48000","-16","experiment","2.1.1.wav","2.1.3.wav","2.1.3.wav","108","even","455532","458031","457530","456785","NA","NA","454532","458765","764","NA","NA","454529","459537","NA","454529","248550","NA","454532","766","New experiment","NA","0","0","0","yes","1024"
"undefined","undefined","undefined","undefined","black","no","legacy","0","uniform","undefined","undefined","undefined","39","39","79","39","39","NA","39","39","0","0","0","39","39","0","39","0","NA","39","0","Mon 24 Jun 2019 01:24:14 PM PDT","500","1000","The main experiment item","yes","NA","ABX_v3.osexp","/home/ubuntu/Desktop/panara","no","no","mono","no","18","no","white","no","yes","768","39","39","/home/ubuntu/Desktop/panara/subject-108.csv","Jazzy James","3.1.3","3.1.3.wav","3.1.5.wav","3.1.5.wav","0","0","NA","0","NA","506","NA","506","NA","247784","space","2","1024","2","48000","-16","experiment","3.1.3.wav","3.1.5.wav","3.1.5.wav","108","even","460684","463244","462744","461950","NA","NA","459684","464030","764","NA","NA","459682","464536","NA","459682","248550","NA","459684","766","New experiment","NA","0","0","0","yes","1024"
"undefined","undefined","undefined","undefined","black","no","legacy","0","uniform","undefined","undefined","undefined","40","40","81","40","40","NA","40","40","0","0","0","40","40","0","40","0","NA","40","0","Mon 24 Jun 2019 01:24:14 PM PDT","500","1000","The main experiment item","yes","NA","ABX_v3.osexp","/home/ubuntu/Desktop/panara","no","no","mono","no","18","no","white","no","yes","768","40","40","/home/ubuntu/Desktop/panara/subject-108.csv","Jazzy James","3.1.3","5.2.3.wav","5.2.5.wav","5.2.5.wav","0","0","NA","0","NA","605","NA","605","NA","247784","space","2","1024","2","48000","-16","experiment","5.2.3.wav","5.2.5.wav","5.2.5.wav","108","even","465693","468176","467676","466956","NA","NA","464692","468899","764","NA","NA","464690","469504","NA","464690","248550","NA","464693","766","New experiment","NA","0","0","0","yes","1024"
"undefined","undefined","undefined","undefined","black","no","legacy","0","uniform","undefined","undefined","undefined","41","41","83","41","41","NA","41","41","0","0","0","41","41","0","41","0","NA","41","0","Mon 24 Jun 2019 01:24:14 PM PDT","500","1000","The main experiment item","yes","NA","ABX_v3.osexp","/home/ubuntu/Desktop/panara","yes","no","mono","no","18","no","white","no","yes","768","41","41","/home/ubuntu/Desktop/panara/subject-108.csv","Jazzy James","3.1.3","1.1.5.wav","1.1.5.wav","1.1.3.wav","0","1","NA","1","NA","454","NA","454","NA","247784","space","2","1024","2","48000","-16","experiment","1.1.3.wav","1.1.5.wav","1.1.5.wav","108","even","470659","473214","472714","471948","NA","NA","469659","473993","764","NA","NA","469656","474448","NA","469656","248550","NA","469659","766","New experiment","NA","0","0","0","yes","1024"
"undefined","undefined","undefined","undefined","black","no","legacy","0","uniform","undefined","undefined","undefined","42","42","85","42","42","NA","42","42","0","0","0","42","42","0","42","0","NA","42","0","Mon 24 Jun 2019 01:24:14 PM PDT","500","1000","The main experiment item","yes","NA","ABX_v3.osexp","/home/ubuntu/Desktop/panara","no","no","mono","no","18","no","white","no","yes","768","42","42","/home/ubuntu/Desktop/panara/subject-108.csv","Jazzy James","3.1.3","4.1.1.wav","4.1.1.wav","4.1.3.wav","0","0","NA","0","NA","1705","NA","1705","NA","247784","space","2","1024","2","48000","-16","experiment","4.1.1.wav","4.1.3.wav","4.1.1.wav","108","even","475626","478079","477578","476853","NA","NA","474625","478814","764","NA","NA","474622","480519","NA","474622","248550","NA","474626","766","New experiment","NA","0","0","0","yes","1024"
"undefined","undefined","undefined","undefined","black","no","legacy","0","uniform","undefined","undefined","undefined","43","43","87","43","43","NA","43","43","0","0","0","43","43","0","43","0","NA","43","0","Mon 24 Jun 2019 01:24:14 PM PDT","500","1000","The main experiment item","yes","NA","ABX_v3.osexp","/home/ubuntu/Desktop/panara","no","no","mono","no","18","no","white","no","yes","768","43","43","/home/ubuntu/Desktop/panara/subject-108.csv","Jazzy James","3.1.3","3.1.2.wav","3.1.2.wav","3.1.4.wav","0","1","NA","1","NA","484","NA","484","NA","247784","space","2","1024","2","48000","-16","experiment","3.1.2.wav","3.1.4.wav","3.1.2.wav","108","even","481646","484204","483704","482920","NA","NA","480646","484978","764","NA","NA","480644","485463","NA","480644","248550","NA","480646","766","New experiment","NA","0","0","0","yes","1024"
"undefined","undefined","undefined","undefined","black","no","legacy","0","uniform","undefined","undefined","undefined","44","44","89","44","44","NA","44","44","0","0","0","44","44","0","44","0","NA","44","0","Mon 24 Jun 2019 01:24:14 PM PDT","500","1000","The main experiment item","yes","NA","ABX_v3.osexp","/home/ubuntu/Desktop/panara","yes","no","mono","no","18","no","white","no","yes","768","44","44","/home/ubuntu/Desktop/panara/subject-108.csv","Jazzy James","3.1.3","5.2.4.wav","5.2.2.wav","5.2.2.wav","0","0","NA","0","NA","1244","NA","1244","NA","247784","space","2","1024","2","48000","-16","experiment","5.2.2.wav","5.2.4.wav","5.2.2.wav","108","even","486640","489107","488607","487882","NA","NA","485640","489826","764","NA","NA","485637","491071","NA","485637","248550","NA","485640","766","New experiment","NA","0","0","0","yes","1024"
"undefined","undefined","undefined","undefined","black","no","legacy","0","uniform","undefined","undefined","undefined","45","45","91","45","45","NA","45","45","0","0","0","45","45","0","45","0","NA","45","0","Mon 24 Jun 2019 01:24:14 PM PDT","500","1000","The main experiment item","yes","NA","ABX_v3.osexp","/home/ubuntu/Desktop/panara","yes","no","mono","no","18","no","white","no","yes","768","45","45","/home/ubuntu/Desktop/panara/subject-108.csv","Jazzy James","3.1.3","4.2.5.wav","4.2.5.wav","4.2.3.wav","0","1","NA","1","NA","690","NA","690","NA","247784","space","2","1024","2","48000","-16","experiment","4.2.3.wav","4.2.5.wav","4.2.5.wav","108","even","492249","494711","494211","493480","NA","NA","491249","495460","764","NA","NA","491247","496150","NA","491247","248550","NA","491249","766","New experiment","NA","0","0","0","yes","1024"
"undefined","undefined","undefined","undefined","black","no","legacy","0","uniform","undefined","undefined","undefined","46","46","93","46","46","NA","46","46","0","0","0","46","46","0","46","0","NA","46","0","Mon 24 Jun 2019 01:24:14 PM PDT","500","1000","The main experiment item","yes","NA","ABX_v3.osexp","/home/ubuntu/Desktop/panara","yes","no","mono","no","18","no","white","no","yes","768","46","46","/home/ubuntu/Desktop/panara/subject-108.csv","Jazzy James","3.1.3","2.2.5.wav","2.2.5.wav","2.2.3.wav","0","1","NA","1","NA","491","NA","491","NA","247784","space","2","1024","2","48000","-16","experiment","2.2.3.wav","2.2.5.wav","2.2.5.wav","108","even","497324","499785","499285","498553","NA","NA","496323","500513","764","NA","NA","496321","501005","NA","496321","248550","NA","496324","766","New experiment","NA","0","0","0","yes","1024"
"undefined","undefined","undefined","undefined","black","no","legacy","0","uniform","undefined","undefined","undefined","47","47","95","47","47","NA","47","47","0","0","0","47","47","0","47","0","NA","47","0","Mon 24 Jun 2019 01:24:14 PM PDT","500","1000","The main experiment item","yes","NA","ABX_v3.osexp","/home/ubuntu/Desktop/panara","no","no","mono","no","18","no","white","no","yes","768","47","47","/home/ubuntu/Desktop/panara/subject-108.csv","Jazzy James","3.1.3","2.2.2.wav","2.2.2.wav","2.2.4.wav","0","1","NA","1","NA","575","NA","575","NA","247784","space","2","1024","2","48000","-16","experiment","2.2.2.wav","2.2.4.wav","2.2.2.wav","108","even","502174","504679","504179","503433","NA","NA","501174","505422","764","NA","NA","501172","505997","NA","501172","248550","NA","501174","766","New experiment","NA","0","0","0","yes","1024"
"undefined","undefined","undefined","undefined","black","no","legacy","0","uniform","undefined","undefined","undefined","48","48","97","48","48","NA","48","48","0","0","0","48","48","0","48","0","NA","48","0","Mon 24 Jun 2019 01:24:14 PM PDT","500","1000","The main experiment item","yes","NA","ABX_v3.osexp","/home/ubuntu/Desktop/panara","yes","no","mono","no","18","no","white","no","yes","768","48","48","/home/ubuntu/Desktop/panara/subject-108.csv","Jazzy James","3.1.3","3.2.5.wav","3.2.3.wav","3.2.3.wav","0","0","NA","0","NA","389","NA","389","NA","247784","space","2","1024","2","48000","-16","experiment","3.2.3.wav","3.2.5.wav","3.2.3.wav","108","even","507169","509694","509194","508458","NA","NA","506169","510432","764","NA","NA","506167","510821","NA","506166","248550","NA","506169","766","New experiment","NA","0","0","0","yes","1024"
"undefined","undefined","undefined","undefined","black","no","legacy","0","uniform","undefined","undefined","undefined","49","49","99","49","49","NA","49","49","0","0","0","49","49","0","49","0","NA","49","0","Mon 24 Jun 2019 01:24:14 PM PDT","500","1000","The main experiment item","yes","NA","ABX_v3.osexp","/home/ubuntu/Desktop/panara","yes","no","mono","no","18","no","white","no","yes","768","49","49","/home/ubuntu/Desktop/panara/subject-108.csv","Jazzy James","3.1.3","5.2.3.wav","5.2.1.wav","5.2.1.wav","0","1","NA","1","NA","367","NA","367","NA","247784","space","2","1024","2","48000","-16","experiment","5.2.1.wav","5.2.3.wav","5.2.1.wav","108","even","511968","514398","513898","513182","NA","NA","510968","515125","764","NA","NA","510965","515493","NA","510965","248550","NA","510968","766","New experiment","NA","0","0","0","yes","1024"
"undefined","undefined","undefined","undefined","black","no","legacy","0","uniform","undefined","undefined","undefined","50","50","101","50","50","NA","50","50","0","0","0","50","50","0","50","0","NA","50","0","Mon 24 Jun 2019 01:24:14 PM PDT","500","1000","The main experiment item","yes","NA","ABX_v3.osexp","/home/ubuntu/Desktop/panara","no","no","mono","no","18","no","white","no","yes","768","50","50","/home/ubuntu/Desktop/panara/subject-108.csv","Jazzy James","3.1.3","2.1.2.wav","2.1.2.wav","2.1.4.wav","0","1","space","1","NA","707","5201","707","NA","247784","space","2","1024","2","48000","-16","experiment","2.1.2.wav","2.1.4.wav","2.1.2.wav","108","even","521879","524372","523872","523126","515675","NA","520879","525121","764","NA","NA","515672","525828","NA","515672","248550","NA","520879","766","New experiment","NA","0","0","0","yes","1024"
"undefined","undefined","undefined","undefined","black","no","legacy","0","uniform","undefined","undefined","undefined","51","51","103","51","51","NA","51","51","0","0","0","51","51","0","51","0","NA","51","0","Mon 24 Jun 2019 01:24:14 PM PDT","500","1000","The main experiment item","yes","NA","ABX_v3.osexp","/home/ubuntu/Desktop/panara","yes","no","mono","no","18","no","white","no","yes","768","51","51","/home/ubuntu/Desktop/panara/subject-108.csv","Jazzy James","3.1.3","4.2.4.wav","4.2.4.wav","4.2.2.wav","0","0","space","0","NA","906","5201","906","NA","247784","space","2","1024","2","48000","-16","experiment","4.2.2.wav","4.2.4.wav","4.2.4.wav","108","even","526995","529458","528958","528243","515675","NA","525995","530177","764","NA","NA","525992","531084","NA","525992","248550","NA","525995","766","New experiment","NA","0","0","0","yes","1024"
"undefined","undefined","undefined","undefined","black","no","legacy","0","uniform","undefined","undefined","undefined","52","52","105","52","52","NA","52","52","0","0","0","52","52","0","52","0","NA","52","0","Mon 24 Jun 2019 01:24:14 PM PDT","500","1000","The main experiment item","yes","NA","ABX_v3.osexp","/home/ubuntu/Desktop/panara","no","no","mono","no","18","no","white","no","yes","768","52","52","/home/ubuntu/Desktop/panara/subject-108.csv","Jazzy James","3.1.3","3.2.3.wav","3.2.5.wav","3.2.5.wav","0","1","space","1","NA","788","5201","788","NA","247784","space","2","1024","2","48000","-16","experiment","3.2.3.wav","3.2.5.wav","3.2.5.wav","108","even","532233","534795","534295","533490","515675","NA","531232","535583","764","NA","NA","531230","536371","NA","531230","248550","NA","531233","766","New experiment","NA","0","0","0","yes","1024"
"undefined","undefined","undefined","undefined","black","no","legacy","0","uniform","undefined","undefined","undefined","53","53","107","53","53","NA","53","53","0","0","0","53","53","0","53","0","NA","53","0","Mon 24 Jun 2019 01:24:14 PM PDT","500","1000","The main experiment item","yes","NA","ABX_v3.osexp","/home/ubuntu/Desktop/panara","yes","no","mono","no","18","no","white","no","yes","768","53","53","/home/ubuntu/Desktop/panara/subject-108.csv","Jazzy James","3.1.3","4.1.5.wav","4.1.5.wav","4.1.3.wav","0","0","space","0","NA","2645","5201","2645","NA","247784","space","2","1024","2","48000","-16","experiment","4.1.3.wav","4.1.5.wav","4.1.5.wav","108","even","537545","539984","539484","538759","515675","NA","536544","540701","764","NA","NA","536542","543347","NA","536542","248550","NA","536545","766","New experiment","NA","0","0","0","yes","1024"
"undefined","undefined","undefined","undefined","black","no","legacy","0","uniform","undefined","undefined","undefined","54","54","109","54","54","NA","54","54","0","0","0","54","54","0","54","0","NA","54","0","Mon 24 Jun 2019 01:24:14 PM PDT","500","1000","The main experiment item","yes","NA","ABX_v3.osexp","/home/ubuntu/Desktop/panara","no","no","mono","no","18","no","white","no","yes","768","0","53","/home/ubuntu/Desktop/panara/subject-108.csv","Jazzy James","3.1.3","4.1.1.wav","4.1.3.wav","4.2.3.wav","0","1","space","1","NA","2133","5201","2133","NA","247784","space","2","1024","2","48000","-16","experiment","4.1.1.wav","4.2.3.wav","4.1.3.wav","108","even","544511","546998","546498","545747","515675","NA","543511","547765","764","NA","NA","543508","549899","543453","543508","248550","NA","543511","766","New experiment","NA","0","0","0","yes","1024"
"undefined","undefined","undefined","undefined","black","no","legacy","0","uniform","undefined","undefined","undefined","55","55","111","55","55","NA","55","55","0","0","0","55","55","0","55","0","NA","55","0","Mon 24 Jun 2019 01:24:14 PM PDT","500","1000","The main experiment item","yes","NA","ABX_v3.osexp","/home/ubuntu/Desktop/panara","yes","no","mono","no","18","no","white","no","yes","768","1","53","/home/ubuntu/Desktop/panara/subject-108.csv","Jazzy James","3.1.3","2.2.5.wav","1.2.5.wav","1.2.3.wav","0","0","space","0","NA","358","5201","358","NA","247784","space","2","1024","2","48000","-16","experiment","1.2.3.wav","2.2.5.wav","1.2.5.wav","108","even","551069","553610","553110","552331","515675","NA","550069","554388","764","NA","NA","550067","554746","543453","550067","248550","NA","550069","766","New experiment","NA","0","0","0","yes","1024"
"undefined","undefined","undefined","undefined","black","no","legacy","0","uniform","undefined","undefined","undefined","56","56","113","56","56","NA","56","56","0","0","0","56","56","0","56","0","NA","56","0","Mon 24 Jun 2019 01:24:14 PM PDT","500","1000","The main experiment item","yes","NA","ABX_v3.osexp","/home/ubuntu/Desktop/panara","yes","no","mono","no","18","no","white","no","yes","768","2","53","/home/ubuntu/Desktop/panara/subject-108.csv","Jazzy James","3.1.3","4.1.4.wav","4.1.2.wav","4.2.2.wav","0","1","space","1","NA","657","5201","657","NA","247784","space","2","1024","2","48000","-16","experiment","4.2.2.wav","4.1.4.wav","4.1.2.wav","108","even","555907","558346","557846","557112","515675","NA","554907","559064","764","NA","NA","554905","559722","543453","554905","248550","NA","554907","766","New experiment","NA","0","0","0","yes","1024"
"undefined","undefined","undefined","undefined","black","no","legacy","0","uniform","undefined","undefined","undefined","57","57","115","57","57","NA","57","57","0","0","0","57","57","0","57","0","NA","57","0","Mon 24 Jun 2019 01:24:14 PM PDT","500","1000","The main experiment item","yes","NA","ABX_v3.osexp","/home/ubuntu/Desktop/panara","yes","no","mono","no","18","no","white","no","yes","768","3","53","/home/ubuntu/Desktop/panara/subject-108.csv","Jazzy James","3.1.3","4.2.5.wav","4.2.3.wav","2.2.3.wav","0","1","space","1","NA","1453","5201","1453","NA","247784","space","2","1024","2","48000","-16","experiment","2.2.3.wav","4.2.5.wav","4.2.3.wav","108","even","560902","563422","562922","562159","515675","NA","559902","564188","764","NA","NA","559899","565642","543453","559899","248550","NA","559902","766","New experiment","NA","0","0","0","yes","1024"
"undefined","undefined","undefined","undefined","black","no","legacy","0","uniform","undefined","undefined","undefined","58","58","117","58","58","NA","58","58","0","0","0","58","58","0","58","0","NA","58","0","Mon 24 Jun 2019 01:24:14 PM PDT","500","1000","The main experiment item","yes","NA","ABX_v3.osexp","/home/ubuntu/Desktop/panara","yes","no","mono","no","18","no","white","no","yes","768","4","53","/home/ubuntu/Desktop/panara/subject-108.csv","Jazzy James","3.1.3","4.1.4.wav","4.1.2.wav","3.1.2.wav","0","1","space","1","NA","477","5201","477","NA","247784","space","2","1024","2","48000","-16","experiment","3.1.2.wav","4.1.4.wav","4.1.2.wav","108","even","566771","569251","568751","568026","515675","NA","565771","570028","764","NA","NA","565768","570505","543453","565768","248550","NA","565771","766","New experiment","NA","0","0","0","yes","1024"
"undefined","undefined","undefined","undefined","black","no","legacy","0","uniform","undefined","undefined","undefined","59","59","119","59","59","NA","59","59","0","0","0","59","59","0","59","0","NA","59","0","Mon 24 Jun 2019 01:24:14 PM PDT","500","1000","The main experiment item","yes","NA","ABX_v3.osexp","/home/ubuntu/Desktop/panara","no","no","mono","no","18","no","white","no","yes","768","5","53","/home/ubuntu/Desktop/panara/subject-108.csv","Jazzy James","3.1.3","3.2.3.wav","1.2.3.wav","1.2.5.wav","0","0","space","0","NA","647","5201","647","NA","247784","space","2","1024","2","48000","-16","experiment","3.2.3.wav","1.2.5.wav","1.2.3.wav","108","even","571675","574192","573692","572924","515675","NA","570675","574978","764","NA","NA","570672","575625","543453","570672","248550","NA","570675","766","New experiment","NA","0","0","0","yes","1024"
"undefined","undefined","undefined","undefined","black","no","legacy","0","uniform","undefined","undefined","undefined","60","60","121","60","60","NA","60","60","0","0","0","60","60","0","60","0","NA","60","0","Mon 24 Jun 2019 01:24:14 PM PDT","500","1000","The main experiment item","yes","NA","ABX_v3.osexp","/home/ubuntu/Desktop/panara","no","no","mono","no","18","no","white","no","yes","768","6","53","/home/ubuntu/Desktop/panara/subject-108.csv","Jazzy James","3.1.3","4.2.1.wav","4.2.3.wav","2.2.3.wav","0","1","space","1","NA","413","5201","413","NA","247784","space","2","1024","2","48000","-16","experiment","4.2.1.wav","2.2.3.wav","4.2.3.wav","108","even","576787","579276","578776","578040","515675","NA","575787","580003","764","NA","NA","575784","580417","543453","575784","248550","NA","575787","766","New experiment","NA","0","0","0","yes","1024"
"undefined","undefined","undefined","undefined","black","no","legacy","0","uniform","undefined","undefined","undefined","61","61","123","61","61","NA","61","61","0","0","0","61","61","0","61","0","NA","61","0","Mon 24 Jun 2019 01:24:14 PM PDT","500","1000","The main experiment item","yes","NA","ABX_v3.osexp","/home/ubuntu/Desktop/panara","yes","no","mono","no","18","no","white","no","yes","768","7","53","/home/ubuntu/Desktop/panara/subject-108.csv","Jazzy James","3.1.3","2.1.3.wav","2.1.1.wav","4.1.1.wav","0","0","space","0","NA","1250","5201","1250","NA","247784","space","2","1024","2","48000","-16","experiment","4.1.1.wav","2.1.3.wav","2.1.1.wav","108","even","581576","584073","583573","582817","515675","NA","580576","584790","764","NA","NA","580574","586040","543453","580574","248550","NA","580576","766","New experiment","NA","0","0","0","yes","1024"
"undefined","undefined","undefined","undefined","black","no","legacy","0","uniform","undefined","undefined","undefined","62","62","125","62","62","NA","62","62","0","0","0","62","62","0","62","0","NA","62","0","Mon 24 Jun 2019 01:24:14 PM PDT","500","1000","The main experiment item","yes","NA","ABX_v3.osexp","/home/ubuntu/Desktop/panara","yes","no","mono","no","18","no","white","no","yes","768","8","53","/home/ubuntu/Desktop/panara/subject-108.csv","Jazzy James","3.1.3","1.2.4.wav","1.1.4.wav","1.1.2.wav","0","1","space","1","NA","586","5201","586","NA","247784","space","2","1024","2","48000","-16","experiment","1.1.2.wav","1.2.4.wav","1.1.4.wav","108","even","587202","589730","589230","588449","515675","NA","586202","590534","764","NA","NA","586199","591120","543453","586199","248550","NA","586202","766","New experiment","NA","0","0","0","yes","1024"
"undefined","undefined","undefined","undefined","black","no","legacy","0","uniform","undefined","undefined","undefined","63","63","127","63","63","NA","63","63","0","0","0","63","63","0","63","0","NA","63","0","Mon 24 Jun 2019 01:24:14 PM PDT","500","1000","The main experiment item","yes","NA","ABX_v3.osexp","/home/ubuntu/Desktop/panara","no","no","mono","no","18","no","white","no","yes","768","9","53","/home/ubuntu/Desktop/panara/subject-108.csv","Jazzy James","3.1.3","4.1.3.wav","3.1.3.wav","3.1.5.wav","0","0","space","0","NA","462","5201","462","NA","247784","space","2","1024","2","48000","-16","experiment","4.1.3.wav","3.1.5.wav","3.1.3.wav","108","even","592289","594779","594279","593500","515675","NA","591289","595544","764","NA","NA","591286","596007","543453","591286","248550","NA","591289","766","New experiment","NA","0","0","0","yes","1024"
"undefined","undefined","undefined","undefined","black","no","legacy","0","uniform","undefined","undefined","undefined","64","64","129","64","64","NA","64","64","0","0","0","64","64","0","64","0","NA","64","0","Mon 24 Jun 2019 01:24:14 PM PDT","500","1000","The main experiment item","yes","NA","ABX_v3.osexp","/home/ubuntu/Desktop/panara","yes","no","mono","no","18","no","white","no","yes","768","10","53","/home/ubuntu/Desktop/panara/subject-108.csv","Jazzy James","3.1.3","1.1.3.wav","1.2.3.wav","1.2.1.wav","0","1","space","1","NA","596","5201","596","NA","247784","space","2","1024","2","48000","-16","experiment","1.2.1.wav","1.1.3.wav","1.2.3.wav","108","even","597186","599751","599251","598470","515675","NA","596185","600539","764","NA","NA","596183","601136","543453","596182","248550","NA","596186","766","New experiment","NA","0","0","0","yes","1024"
"undefined","undefined","undefined","undefined","black","no","legacy","0","uniform","undefined","undefined","undefined","65","65","131","65","65","NA","65","65","0","0","0","65","65","0","65","0","NA","65","0","Mon 24 Jun 2019 01:24:14 PM PDT","500","1000","The main experiment item","yes","NA","ABX_v3.osexp","/home/ubuntu/Desktop/panara","no","no","mono","no","18","no","white","no","yes","768","11","53","/home/ubuntu/Desktop/panara/subject-108.csv","Jazzy James","3.1.3","3.1.3.wav","3.1.5.wav","1.1.5.wav","0","1","space","1","NA","1833","5201","1833","NA","247784","space","2","1024","2","48000","-16","experiment","3.1.3.wav","1.1.5.wav","3.1.5.wav","108","even","602318","604831","604331","603550","515675","NA","601317","605614","764","NA","NA","601315","607448","543453","601315","248550","NA","601318","766","New experiment","NA","0","0","0","yes","1024"
"undefined","undefined","undefined","undefined","black","no","legacy","0","uniform","undefined","undefined","undefined","66","66","133","66","66","NA","66","66","0","0","0","66","66","0","66","0","NA","66","0","Mon 24 Jun 2019 01:24:14 PM PDT","500","1000","The main experiment item","yes","NA","ABX_v3.osexp","/home/ubuntu/Desktop/panara","yes","no","mono","no","18","no","white","no","yes","768","12","53","/home/ubuntu/Desktop/panara/subject-108.csv","Jazzy James","3.1.3","4.2.4.wav","4.2.2.wav","4.1.2.wav","0","1","space","1","NA","1421","5201","1421","NA","247784","space","2","1024","2","48000","-16","experiment","4.1.2.wav","4.2.4.wav","4.2.2.wav","108","even","608612","611083","610583","609863","515675","NA","607611","611793","764","NA","NA","607609","613215","543453","607609","248550","NA","607612","766","New experiment","NA","0","0","0","yes","1024"
"undefined","undefined","undefined","undefined","black","no","legacy","0","uniform","undefined","undefined","undefined","67","67","135","67","67","NA","67","67","0","0","0","67","67","0","67","0","NA","67","0","Mon 24 Jun 2019 01:24:14 PM PDT","500","1000","The main experiment item","yes","NA","ABX_v3.osexp","/home/ubuntu/Desktop/panara","yes","no","mono","no","18","no","white","no","yes","768","13","53","/home/ubuntu/Desktop/panara/subject-108.csv","Jazzy James","3.1.3","4.2.5.wav","3.2.5.wav","3.2.3.wav","0","0","space","0","NA","1197","5201","1197","NA","247784","space","2","1024","2","48000","-16","experiment","3.2.3.wav","4.2.5.wav","3.2.5.wav","108","even","614372","616898","616398","615622","515675","NA","613371","617641","764","NA","NA","613369","618839","543453","613369","248550","NA","613372","766","New experiment","NA","0","0","0","yes","1024"
"undefined","undefined","undefined","undefined","black","no","legacy","0","uniform","undefined","undefined","undefined","68","68","137","68","68","NA","68","68","0","0","0","68","68","0","68","0","NA","68","0","Mon 24 Jun 2019 01:24:14 PM PDT","500","1000","The main experiment item","yes","NA","ABX_v3.osexp","/home/ubuntu/Desktop/panara","yes","no","mono","no","18","no","white","no","yes","768","14","53","/home/ubuntu/Desktop/panara/subject-108.csv","Jazzy James","3.1.3","3.1.3.wav","1.1.3.wav","1.1.1.wav","0","0","space","0","NA","502","5201","502","NA","247784","space","2","1024","2","48000","-16","experiment","1.1.1.wav","3.1.3.wav","1.1.3.wav","108","even","620019","622560","622060","621279","515675","NA","619019","623360","764","NA","NA","619016","623862","543453","619016","248550","NA","619019","766","New experiment","NA","0","0","0","yes","1024"
"undefined","undefined","undefined","undefined","black","no","legacy","0","uniform","undefined","undefined","undefined","69","69","139","69","69","NA","69","69","0","0","0","69","69","0","69","0","NA","69","0","Mon 24 Jun 2019 01:24:14 PM PDT","500","1000","The main experiment item","yes","NA","ABX_v3.osexp","/home/ubuntu/Desktop/panara","yes","no","mono","no","18","no","white","no","yes","768","15","53","/home/ubuntu/Desktop/panara/subject-108.csv","Jazzy James","3.1.3","2.1.5.wav","2.1.3.wav","2.2.3.wav","0","0","space","0","NA","855","5201","855","NA","247784","space","2","1024","2","48000","-16","experiment","2.2.3.wav","2.1.5.wav","2.1.3.wav","108","even","625008","627534","627034","626271","515675","NA","624008","628287","764","NA","NA","624005","629142","543453","624005","248550","NA","624008","766","New experiment","NA","0","0","0","yes","1024"
"undefined","undefined","undefined","undefined","black","no","legacy","0","uniform","undefined","undefined","undefined","70","70","141","70","70","NA","70","70","0","0","0","70","70","0","70","0","NA","70","0","Mon 24 Jun 2019 01:24:14 PM PDT","500","1000","The main experiment item","yes","NA","ABX_v3.osexp","/home/ubuntu/Desktop/panara","no","no","mono","no","18","no","white","no","yes","768","16","53","/home/ubuntu/Desktop/panara/subject-108.csv","Jazzy James","3.1.3","2.1.2.wav","1.1.2.wav","1.1.4.wav","0","0","space","0","NA","594","5201","594","NA","247784","space","2","1024","2","48000","-16","experiment","2.1.2.wav","1.1.4.wav","1.1.2.wav","108","even","630288","632812","632312","631537","515675","NA","629288","633595","764","NA","NA","629286","634190","543453","629286","248550","NA","629288","766","New experiment","NA","0","0","0","yes","1024"
"undefined","undefined","undefined","undefined","black","no","legacy","0","uniform","undefined","undefined","undefined","71","71","143","71","71","NA","71","71","0","0","0","71","71","0","71","0","NA","71","0","Mon 24 Jun 2019 01:24:14 PM PDT","500","1000","The main experiment item","yes","NA","ABX_v3.osexp","/home/ubuntu/Desktop/panara","no","no","mono","no","18","no","white","no","yes","768","17","53","/home/ubuntu/Desktop/panara/subject-108.csv","Jazzy James","3.1.3","2.1.1.wav","2.1.3.wav","2.2.3.wav","0","1","space","1","NA","887","5201","887","NA","247784","space","2","1024","2","48000","-16","experiment","2.1.1.wav","2.2.3.wav","2.1.3.wav","108","even","635333","637833","637333","636592","515675","NA","634332","638590","764","NA","NA","634330","639478","543453","634330","248550","NA","634333","766","New experiment","NA","0","0","0","yes","1024"
"undefined","undefined","undefined","undefined","black","no","legacy","0","uniform","undefined","undefined","undefined","72","72","145","72","72","NA","72","72","0","0","0","72","72","0","72","0","NA","72","0","Mon 24 Jun 2019 01:24:14 PM PDT","500","1000","The main experiment item","yes","NA","ABX_v3.osexp","/home/ubuntu/Desktop/panara","yes","no","mono","no","18","no","white","no","yes","768","18","53","/home/ubuntu/Desktop/panara/subject-108.csv","Jazzy James","3.1.3","3.2.4.wav","1.2.4.wav","1.2.2.wav","0","0","space","0","NA","1244","5201","1244","NA","247784","space","2","1024","2","48000","-16","experiment","1.2.2.wav","3.2.4.wav","1.2.4.wav","108","even","640623","643102","642602","641856","515675","NA","639623","643889","764","NA","NA","639620","645133","543453","639620","248550","NA","639623","766","New experiment","NA","0","0","0","yes","1024"
"undefined","undefined","undefined","undefined","black","no","legacy","0","uniform","undefined","undefined","undefined","73","73","147","73","73","NA","73","73","0","0","0","73","73","0","73","0","NA","73","0","Mon 24 Jun 2019 01:24:14 PM PDT","500","1000","The main experiment item","yes","NA","ABX_v3.osexp","/home/ubuntu/Desktop/panara","yes","no","mono","no","18","no","white","no","yes","768","19","53","/home/ubuntu/Desktop/panara/subject-108.csv","Jazzy James","3.1.3","3.2.4.wav","4.2.4.wav","4.2.2.wav","0","0","space","0","NA","500","5201","500","NA","247784","space","2","1024","2","48000","-16","experiment","4.2.2.wav","3.2.4.wav","4.2.4.wav","108","even","646270","648772","648272","647531","515675","NA","645270","649511","764","NA","NA","645267","650012","543453","645267","248550","NA","645270","766","New experiment","NA","0","0","0","yes","1024"
"undefined","undefined","undefined","undefined","black","no","legacy","0","uniform","undefined","undefined","undefined","74","74","149","74","74","NA","74","74","0","0","0","74","74","0","74","0","NA","74","0","Mon 24 Jun 2019 01:24:14 PM PDT","500","1000","The main experiment item","yes","NA","ABX_v3.osexp","/home/ubuntu/Desktop/panara","no","no","mono","no","18","no","white","no","yes","768","20","53","/home/ubuntu/Desktop/panara/subject-108.csv","Jazzy James","3.1.3","1.2.3.wav","2.2.3.wav","2.2.5.wav","0","0","space","0","NA","775","5201","775","NA","247784","space","2","1024","2","48000","-16","experiment","1.2.3.wav","2.2.5.wav","2.2.3.wav","108","even","651156","653704","653204","652468","515675","NA","650156","654445","764","NA","NA","650154","655221","543453","650154","248550","NA","650156","766","New experiment","NA","0","0","0","yes","1024"
"undefined","undefined","undefined","undefined","black","no","legacy","0","uniform","undefined","undefined","undefined","75","75","151","75","75","NA","75","75","0","0","0","75","75","0","75","0","NA","75","0","Mon 24 Jun 2019 01:24:14 PM PDT","500","1000","The main experiment item","yes","NA","ABX_v3.osexp","/home/ubuntu/Desktop/panara","no","no","mono","no","18","no","white","no","yes","768","21","53","/home/ubuntu/Desktop/panara/subject-108.csv","Jazzy James","3.1.3","2.2.2.wav","2.2.4.wav","1.2.4.wav","0","1","space","1","NA","1082","5201","1082","NA","247784","space","2","1024","2","48000","-16","experiment","2.2.2.wav","1.2.4.wav","2.2.4.wav","108","even","656408","658868","658368","657647","515675","NA","655408","659602","764","NA","NA","655405","660684","543453","655405","248550","NA","655408","766","New experiment","NA","0","0","0","yes","1024"
"undefined","undefined","undefined","undefined","black","no","legacy","0","uniform","undefined","undefined","undefined","76","76","153","76","76","NA","76","76","0","0","0","76","76","0","76","0","NA","76","0","Mon 24 Jun 2019 01:24:14 PM PDT","500","1000","The main experiment item","yes","NA","ABX_v3.osexp","/home/ubuntu/Desktop/panara","yes","no","mono","no","18","no","white","no","yes","768","22","53","/home/ubuntu/Desktop/panara/subject-108.csv","Jazzy James","3.1.3","4.1.4.wav","4.2.4.wav","4.2.2.wav","0","1","space","1","NA","512","5201","512","NA","247784","space","2","1024","2","48000","-16","experiment","4.2.2.wav","4.1.4.wav","4.2.4.wav","108","even","661869","664348","663848","663112","515675","NA","660868","665068","764","NA","NA","660866","665580","543453","660866","248550","NA","660869","766","New experiment","NA","0","0","0","yes","1024"
"undefined","undefined","undefined","undefined","black","no","legacy","0","uniform","undefined","undefined","undefined","77","77","155","77","77","NA","77","77","0","0","0","77","77","0","77","0","NA","77","0","Mon 24 Jun 2019 01:24:14 PM PDT","500","1000","The main experiment item","yes","NA","ABX_v3.osexp","/home/ubuntu/Desktop/panara","yes","no","mono","no","18","no","white","no","yes","768","23","53","/home/ubuntu/Desktop/panara/subject-108.csv","Jazzy James","3.1.3","2.1.5.wav","2.1.3.wav","1.1.3.wav","0","1","space","1","NA","707","5201","707","NA","247784","space","2","1024","2","48000","-16","experiment","1.1.3.wav","2.1.5.wav","2.1.3.wav","108","even","666758","669234","668734","667997","515675","NA","665758","670040","764","NA","NA","665755","670748","543453","665755","248550","NA","665758","766","New experiment","NA","0","0","0","yes","1024"
"undefined","undefined","undefined","undefined","black","no","legacy","0","uniform","undefined","undefined","undefined","78","78","157","78","78","NA","78","78","0","0","0","78","78","0","78","0","NA","78","0","Mon 24 Jun 2019 01:24:14 PM PDT","500","1000","The main experiment item","yes","NA","ABX_v3.osexp","/home/ubuntu/Desktop/panara","no","no","mono","no","18","no","white","no","yes","768","24","53","/home/ubuntu/Desktop/panara/subject-108.csv","Jazzy James","3.1.3","4.1.1.wav","3.1.1.wav","3.1.3.wav","0","0","space","0","NA","613","5201","613","NA","247784","space","2","1024","2","48000","-16","experiment","4.1.1.wav","3.1.3.wav","3.1.1.wav","108","even","671879","674392","673892","673134","515675","NA","670879","675174","764","NA","NA","670876","675788","543453","670876","248550","NA","670879","766","New experiment","NA","0","0","0","yes","1024"
"undefined","undefined","undefined","undefined","black","no","legacy","0","uniform","undefined","undefined","undefined","79","79","159","79","79","NA","79","79","0","0","0","79","79","0","79","0","NA","79","0","Mon 24 Jun 2019 01:24:14 PM PDT","500","1000","The main experiment item","yes","NA","ABX_v3.osexp","/home/ubuntu/Desktop/panara","yes","no","mono","no","18","no","white","no","yes","768","25","53","/home/ubuntu/Desktop/panara/subject-108.csv","Jazzy James","3.1.3","1.2.4.wav","1.2.2.wav","2.2.2.wav","0","1","space","1","NA","569","5201","569","NA","247784","space","2","1024","2","48000","-16","experiment","2.2.2.wav","1.2.4.wav","1.2.2.wav","108","even","676960","679492","678991","678210","515675","NA","675960","680234","764","NA","NA","675958","680803","543453","675958","248550","NA","675960","766","New experiment","NA","0","0","0","yes","1024"
"undefined","undefined","undefined","undefined","black","no","legacy","0","uniform","undefined","undefined","undefined","80","80","161","80","80","NA","80","80","0","0","0","80","80","0","80","0","NA","80","0","Mon 24 Jun 2019 01:24:14 PM PDT","500","1000","The main experiment item","yes","NA","ABX_v3.osexp","/home/ubuntu/Desktop/panara","no","no","mono","no","18","no","white","no","yes","768","26","53","/home/ubuntu/Desktop/panara/subject-108.csv","Jazzy James","3.1.3","4.1.2.wav","4.1.4.wav","3.1.4.wav","0","1","space","1","NA","580","5201","580","NA","247784","space","2","1024","2","48000","-16","experiment","4.1.2.wav","3.1.4.wav","4.1.4.wav","108","even","681982","684461","683961","683203","515675","NA","680982","685231","764","NA","NA","680980","685811","543453","680980","248550","NA","680982","766","New experiment","NA","0","0","0","yes","1024"
"undefined","undefined","undefined","undefined","black","no","legacy","0","uniform","undefined","undefined","undefined","81","81","163","81","81","NA","81","81","0","0","0","81","81","0","81","0","NA","81","0","Mon 24 Jun 2019 01:24:14 PM PDT","500","1000","The main experiment item","yes","NA","ABX_v3.osexp","/home/ubuntu/Desktop/panara","yes","no","mono","no","18","no","white","no","yes","768","27","53","/home/ubuntu/Desktop/panara/subject-108.csv","Jazzy James","3.1.3","3.1.4.wav","3.1.2.wav","1.1.2.wav","0","1","space","1","NA","781","5201","781","NA","247784","space","2","1024","2","48000","-16","experiment","1.1.2.wav","3.1.4.wav","3.1.2.wav","108","even","686988","689534","689034","688259","515675","NA","685988","690317","764","NA","NA","685985","691099","543453","685985","248550","NA","685988","766","New experiment","NA","0","0","0","yes","1024"
"undefined","undefined","undefined","undefined","black","no","legacy","0","uniform","undefined","undefined","undefined","82","82","165","82","82","NA","82","82","0","0","0","82","82","0","82","0","NA","82","0","Mon 24 Jun 2019 01:24:14 PM PDT","500","1000","The main experiment item","yes","NA","ABX_v3.osexp","/home/ubuntu/Desktop/panara","yes","no","mono","no","18","no","white","no","yes","768","28","53","/home/ubuntu/Desktop/panara/subject-108.csv","Jazzy James","3.1.3","1.2.3.wav","1.2.1.wav","2.2.1.wav","0","1","space","1","NA","1209","5201","1209","NA","247784","space","2","1024","2","48000","-16","experiment","2.2.1.wav","1.2.3.wav","1.2.1.wav","108","even","692252","694812","694312","693526","515675","NA","691252","695569","764","NA","NA","691249","696779","543453","691249","248550","NA","691252","766","New experiment","NA","0","0","0","yes","1024"
"undefined","undefined","undefined","undefined","black","no","legacy","0","uniform","undefined","undefined","undefined","83","83","167","83","83","NA","83","83","0","0","0","83","83","0","83","0","NA","83","0","Mon 24 Jun 2019 01:24:14 PM PDT","500","1000","The main experiment item","yes","NA","ABX_v3.osexp","/home/ubuntu/Desktop/panara","yes","no","mono","no","18","no","white","no","yes","768","29","53","/home/ubuntu/Desktop/panara/subject-108.csv","Jazzy James","3.1.3","3.2.5.wav","1.2.5.wav","1.2.3.wav","0","0","space","0","NA","724","5201","724","NA","247784","space","2","1024","2","48000","-16","experiment","1.2.3.wav","3.2.5.wav","1.2.5.wav","108","even","697946","700528","700028","699224","515675","NA","696945","701301","764","NA","NA","696943","702025","543453","696943","248550","NA","696946","766","New experiment","NA","0","0","0","yes","1024"
"undefined","undefined","undefined","undefined","black","no","legacy","0","uniform","undefined","undefined","undefined","84","84","169","84","84","NA","84","84","0","0","0","84","84","0","84","0","NA","84","0","Mon 24 Jun 2019 01:24:14 PM PDT","500","1000","The main experiment item","yes","NA","ABX_v3.osexp","/home/ubuntu/Desktop/panara","no","no","mono","no","18","no","white","no","yes","768","30","53","/home/ubuntu/Desktop/panara/subject-108.csv","Jazzy James","3.1.3","2.2.2.wav","4.2.2.wav","4.2.4.wav","0","0","space","0","NA","574","5201","574","NA","247784","space","2","1024","2","48000","-16","experiment","2.2.2.wav","4.2.4.wav","4.2.2.wav","108","even","703190","705644","705144","704434","515675","NA","702190","706379","764","NA","NA","702187","706954","543453","702187","248550","NA","702190","766","New experiment","NA","0","0","0","yes","1024"
"undefined","undefined","undefined","undefined","black","no","legacy","0","uniform","undefined","undefined","undefined","85","85","171","85","85","NA","85","85","0","0","0","85","85","0","85","0","NA","85","0","Mon 24 Jun 2019 01:24:14 PM PDT","500","1000","The main experiment item","yes","NA","ABX_v3.osexp","/home/ubuntu/Desktop/panara","no","no","mono","no","18","no","white","no","yes","768","31","53","/home/ubuntu/Desktop/panara/subject-108.csv","Jazzy James","3.1.3","4.1.3.wav","2.1.3.wav","2.1.5.wav","0","1","space","1","NA","994","5201","994","NA","247784","space","2","1024","2","48000","-16","experiment","4.1.3.wav","2.1.5.wav","2.1.3.wav","108","even","708131","710616","710116","709353","515675","NA","707131","711359","764","NA","NA","707128","712354","543453","707128","248550","NA","707131","766","New experiment","NA","0","0","0","yes","1024"
"undefined","undefined","undefined","undefined","black","no","legacy","0","uniform","undefined","undefined","undefined","86","86","173","86","86","NA","86","86","0","0","0","86","86","0","86","0","NA","86","0","Mon 24 Jun 2019 01:24:14 PM PDT","500","1000","The main experiment item","yes","NA","ABX_v3.osexp","/home/ubuntu/Desktop/panara","yes","no","mono","no","18","no","white","no","yes","768","32","53","/home/ubuntu/Desktop/panara/subject-108.csv","Jazzy James","3.1.3","3.1.5.wav","1.1.5.wav","1.1.3.wav","0","0","space","0","NA","417","5201","417","NA","247784","space","2","1024","2","48000","-16","experiment","1.1.3.wav","3.1.5.wav","1.1.5.wav","108","even","713532","716093","715593","714822","515675","NA","712532","716880","764","NA","NA","712529","717298","543453","712529","248550","NA","712532","766","New experiment","NA","0","0","0","yes","1024"
"undefined","undefined","undefined","undefined","black","no","legacy","0","uniform","undefined","undefined","undefined","87","87","175","87","87","NA","87","87","0","0","0","87","87","0","87","0","NA","87","0","Mon 24 Jun 2019 01:24:14 PM PDT","500","1000","The main experiment item","yes","NA","ABX_v3.osexp","/home/ubuntu/Desktop/panara","yes","no","mono","no","18","no","white","no","yes","768","33","53","/home/ubuntu/Desktop/panara/subject-108.csv","Jazzy James","3.1.3","4.1.5.wav","2.1.5.wav","2.1.3.wav","0","0","space","0","NA","634","5201","634","NA","247784","space","2","1024","2","48000","-16","experiment","2.1.3.wav","4.1.5.wav","2.1.5.wav","108","even","718461","720969","720469","719724","515675","NA","717460","721743","764","NA","NA","717458","722377","543453","717458","248550","NA","717461","766","New experiment","NA","0","0","0","yes","1024"
"undefined","undefined","undefined","undefined","black","no","legacy","0","uniform","undefined","undefined","undefined","88","88","177","88","88","NA","88","88","0","0","0","88","88","0","88","0","NA","88","0","Mon 24 Jun 2019 01:24:14 PM PDT","500","1000","The main experiment item","yes","NA","ABX_v3.osexp","/home/ubuntu/Desktop/panara","yes","no","mono","no","18","no","white","no","yes","768","34","53","/home/ubuntu/Desktop/panara/subject-108.csv","Jazzy James","3.1.3","4.2.4.wav","4.2.2.wav","3.2.2.wav","0","0","space","0","NA","978","5201","978","NA","247784","space","2","1024","2","48000","-16","experiment","3.2.2.wav","4.2.4.wav","4.2.2.wav","108","even","723546","725995","725495","724787","515675","NA","722545","726782","764","NA","NA","722543","727761","543453","722543","248550","NA","722546","766","New experiment","NA","0","0","0","yes","1024"
"undefined","undefined","undefined","undefined","black","no","legacy","0","uniform","undefined","undefined","undefined","89","89","179","89","89","NA","89","89","0","0","0","89","89","0","89","0","NA","89","0","Mon 24 Jun 2019 01:24:14 PM PDT","500","1000","The main experiment item","yes","NA","ABX_v3.osexp","/home/ubuntu/Desktop/panara","no","no","mono","no","18","no","white","no","yes","768","35","53","/home/ubuntu/Desktop/panara/subject-108.csv","Jazzy James","3.1.3","3.2.2.wav","3.2.4.wav","4.2.4.wav","0","0","space","0","NA","2029","5201","2029","NA","247784","space","2","1024","2","48000","-16","experiment","3.2.2.wav","4.2.4.wav","3.2.4.wav","108","even","728945","731452","730952","730215","515675","NA","727945","732179","764","NA","NA","727943","734209","543453","727943","248550","NA","727945","766","New experiment","NA","0","0","0","yes","1024"
"undefined","undefined","undefined","undefined","black","no","legacy","0","uniform","undefined","undefined","undefined","90","90","181","90","90","NA","90","90","0","0","0","90","90","0","90","0","NA","90","0","Mon 24 Jun 2019 01:24:14 PM PDT","500","1000","The main experiment item","yes","NA","ABX_v3.osexp","/home/ubuntu/Desktop/panara","no","no","mono","no","18","no","white","no","yes","768","36","53","/home/ubuntu/Desktop/panara/subject-108.csv","Jazzy James","3.1.3","3.1.2.wav","3.1.4.wav","3.2.4.wav","0","0","space","0","NA","1127","5201","1127","NA","247784","space","2","1024","2","48000","-16","experiment","3.1.2.wav","3.2.4.wav","3.1.4.wav","108","even","735374","737937","737437","736666","515675","NA","734373","738681","764","NA","NA","734371","739809","543453","734371","248550","NA","734374","766","New experiment","NA","0","0","0","yes","1024"
"undefined","undefined","undefined","undefined","black","no","legacy","0","uniform","undefined","undefined","undefined","91","91","183","91","91","NA","91","91","0","0","0","91","91","0","91","0","NA","91","0","Mon 24 Jun 2019 01:24:14 PM PDT","500","1000","The main experiment item","yes","NA","ABX_v3.osexp","/home/ubuntu/Desktop/panara","yes","no","mono","no","18","no","white","no","yes","768","37","53","/home/ubuntu/Desktop/panara/subject-108.csv","Jazzy James","3.1.3","2.1.4.wav","2.1.2.wav","4.1.2.wav","0","1","space","1","NA","1020","5201","1020","NA","247784","space","2","1024","2","48000","-16","experiment","4.1.2.wav","2.1.4.wav","2.1.2.wav","108","even","740991","743492","742992","742255","515675","NA","739990","744244","764","NA","NA","739988","745264","543453","739988","248550","NA","739991","766","New experiment","NA","0","0","0","yes","1024"
"undefined","undefined","undefined","undefined","black","no","legacy","0","uniform","undefined","undefined","undefined","92","92","185","92","92","NA","92","92","0","0","0","92","92","0","92","0","NA","92","0","Mon 24 Jun 2019 01:24:14 PM PDT","500","1000","The main experiment item","yes","NA","ABX_v3.osexp","/home/ubuntu/Desktop/panara","yes","no","mono","no","18","no","white","no","yes","768","38","53","/home/ubuntu/Desktop/panara/subject-108.csv","Jazzy James","3.1.3","3.2.3.wav","3.1.3.wav","3.1.1.wav","0","0","space","0","NA","796","5201","796","NA","247784","space","2","1024","2","48000","-16","experiment","3.1.1.wav","3.2.3.wav","3.1.3.wav","108","even","746415","748928","748427","747677","515675","NA","745415","749667","764","NA","NA","745412","750464","543453","745412","248550","NA","745415","766","New experiment","NA","0","0","0","yes","1024"
"undefined","undefined","undefined","undefined","black","no","legacy","0","uniform","undefined","undefined","undefined","93","93","187","93","93","NA","93","93","0","0","0","93","93","0","93","0","NA","93","0","Mon 24 Jun 2019 01:24:14 PM PDT","500","1000","The main experiment item","yes","NA","ABX_v3.osexp","/home/ubuntu/Desktop/panara","yes","no","mono","no","18","no","white","no","yes","768","39","53","/home/ubuntu/Desktop/panara/subject-108.csv","Jazzy James","3.1.3","3.1.5.wav","4.1.5.wav","4.1.3.wav","0","0","space","0","NA","1096","5201","1096","NA","247784","space","2","1024","2","48000","-16","experiment","4.1.3.wav","3.1.5.wav","4.1.5.wav","108","even","751615","754133","753633","752921","515675","NA","750615","754847","764","NA","NA","750613","755944","543453","750613","248550","NA","750615","766","New experiment","NA","0","0","0","yes","1024"
"undefined","undefined","undefined","undefined","black","no","legacy","0","uniform","undefined","undefined","undefined","94","94","189","94","94","NA","94","94","0","0","0","94","94","0","94","0","NA","94","0","Mon 24 Jun 2019 01:24:14 PM PDT","500","1000","The main experiment item","yes","NA","ABX_v3.osexp","/home/ubuntu/Desktop/panara","no","no","mono","no","18","no","white","no","yes","768","40","53","/home/ubuntu/Desktop/panara/subject-108.csv","Jazzy James","3.1.3","2.1.2.wav","2.1.4.wav","2.2.4.wav","0","0","space","0","NA","664","5201","664","NA","247784","space","2","1024","2","48000","-16","experiment","2.1.2.wav","2.2.4.wav","2.1.4.wav","108","even","757098","759598","759098","758362","515675","NA","756097","760350","764","NA","NA","756095","761015","543453","756095","248550","NA","756097","766","New experiment","NA","0","0","0","yes","1024"
"undefined","undefined","undefined","undefined","black","no","legacy","0","uniform","undefined","undefined","undefined","95","95","191","95","95","NA","95","95","0","0","0","95","95","0","95","0","NA","95","0","Mon 24 Jun 2019 01:24:14 PM PDT","500","1000","The main experiment item","yes","NA","ABX_v3.osexp","/home/ubuntu/Desktop/panara","yes","no","mono","no","18","no","white","no","yes","768","41","53","/home/ubuntu/Desktop/panara/subject-108.csv","Jazzy James","3.1.3","4.2.3.wav","3.2.3.wav","3.2.1.wav","0","0","space","0","NA","1628","5201","1628","NA","247784","space","2","1024","2","48000","-16","experiment","3.2.1.wav","4.2.3.wav","3.2.3.wav","108","even","762163","764657","764157","763408","515675","NA","761163","765411","764","NA","NA","761160","767039","543453","761160","248550","NA","761163","766","New experiment","NA","0","0","0","yes","1024"
"undefined","undefined","undefined","undefined","black","no","legacy","0","uniform","undefined","undefined","undefined","96","96","193","96","96","NA","96","96","0","0","0","96","96","0","96","0","NA","96","0","Mon 24 Jun 2019 01:24:14 PM PDT","500","1000","The main experiment item","yes","NA","ABX_v3.osexp","/home/ubuntu/Desktop/panara","yes","no","mono","no","18","no","white","no","yes","768","42","53","/home/ubuntu/Desktop/panara/subject-108.csv","Jazzy James","3.1.3","2.1.5.wav","1.1.5.wav","1.1.3.wav","0","0","space","0","NA","399","5201","399","NA","247784","space","2","1024","2","48000","-16","experiment","1.1.3.wav","2.1.5.wav","1.1.5.wav","108","even","768196","770728","770228","769457","515675","NA","767195","771559","764","NA","NA","767193","771959","543453","767193","248550","NA","767196","766","New experiment","NA","0","0","0","yes","1024"
"undefined","undefined","undefined","undefined","black","no","legacy","0","uniform","undefined","undefined","undefined","97","97","195","97","97","NA","97","97","0","0","0","97","97","0","97","0","NA","97","0","Mon 24 Jun 2019 01:24:14 PM PDT","500","1000","The main experiment item","yes","NA","ABX_v3.osexp","/home/ubuntu/Desktop/panara","yes","no","mono","no","18","no","white","no","yes","768","43","53","/home/ubuntu/Desktop/panara/subject-108.csv","Jazzy James","3.1.3","3.2.3.wav","3.2.1.wav","3.1.1.wav","0","1","space","1","NA","1025","5201","1025","NA","247784","space","2","1024","2","48000","-16","experiment","3.1.1.wav","3.2.3.wav","3.2.1.wav","108","even","773103","775613","775112","774377","515675","NA","772103","776357","764","NA","NA","772100","777383","543453","772100","248550","NA","772103","766","New experiment","NA","0","0","0","yes","1024"
"undefined","undefined","undefined","undefined","black","no","legacy","0","uniform","undefined","undefined","undefined","98","98","197","98","98","NA","98","98","0","0","0","98","98","0","98","0","NA","98","0","Mon 24 Jun 2019 01:24:14 PM PDT","500","1000","The main experiment item","yes","NA","ABX_v3.osexp","/home/ubuntu/Desktop/panara","no","no","mono","no","18","no","white","no","yes","768","44","53","/home/ubuntu/Desktop/panara/subject-108.csv","Jazzy James","3.1.3","3.2.1.wav","1.2.1.wav","1.2.3.wav","0","0","space","0","NA","384","5201","384","NA","247784","space","2","1024","2","48000","-16","experiment","3.2.1.wav","1.2.3.wav","1.2.1.wav","108","even","778529","781075","780575","779804","515675","NA","777529","781862","764","NA","NA","777527","782247","543453","777527","248550","NA","777529","766","New experiment","NA","0","0","0","yes","1024"
"undefined","undefined","undefined","undefined","black","no","legacy","0","uniform","undefined","undefined","undefined","99","99","199","99","99","NA","99","99","0","0","0","99","99","0","99","0","NA","99","0","Mon 24 Jun 2019 01:24:14 PM PDT","500","1000","The main experiment item","yes","NA","ABX_v3.osexp","/home/ubuntu/Desktop/panara","yes","no","mono","no","18","no","white","no","yes","768","45","53","/home/ubuntu/Desktop/panara/subject-108.csv","Jazzy James","3.1.3","1.2.3.wav","3.2.3.wav","3.2.1.wav","0","0","space","0","NA","907","5201","907","NA","247784","space","2","1024","2","48000","-16","experiment","3.2.1.wav","1.2.3.wav","3.2.3.wav","108","even","783380","785900","785400","784667","515675","NA","782380","786635","764","NA","NA","782378","787542","543453","782377","248550","NA","782380","766","New experiment","NA","0","0","0","yes","1024"
"undefined","undefined","undefined","undefined","black","no","legacy","0","uniform","undefined","undefined","undefined","100","100","201","100","100","NA","100","100","0","0","0","100","100","0","100","0","NA","100","0","Mon 24 Jun 2019 01:24:14 PM PDT","500","1000","The main experiment item","yes","NA","ABX_v3.osexp","/home/ubuntu/Desktop/panara","yes","no","mono","no","18","no","white","no","yes","768","46","53","/home/ubuntu/Desktop/panara/subject-108.csv","Jazzy James","3.1.3","4.2.3.wav","4.2.1.wav","2.2.1.wav","0","1","space","1","NA","1107","34814","1107","NA","247784","space","2","1024","2","48000","-16","experiment","2.2.1.wav","4.2.3.wav","4.2.1.wav","108","even","823519","826023","825523","824772","787702","NA","822519","826737","764","NA","NA","787699","827844","543453","787699","248550","NA","822519","766","New experiment","NA","0","0","0","yes","1024"
"undefined","undefined","undefined","undefined","black","no","legacy","0","uniform","undefined","undefined","undefined","101","101","203","101","101","NA","101","101","0","0","0","101","101","0","101","0","NA","101","0","Mon 24 Jun 2019 01:24:14 PM PDT","500","1000","The main experiment item","yes","NA","ABX_v3.osexp","/home/ubuntu/Desktop/panara","yes","no","mono","no","18","no","white","no","yes","768","47","53","/home/ubuntu/Desktop/panara/subject-108.csv","Jazzy James","3.1.3","4.1.3.wav","4.1.1.wav","4.2.1.wav","0","0","space","0","NA","561","34814","561","NA","247784","space","2","1024","2","48000","-16","experiment","4.2.1.wav","4.1.3.wav","4.1.1.wav","108","even","828989","831471","830971","830227","787702","NA","827989","832210","764","NA","NA","827986","832772","543453","827986","248550","NA","827989","766","New experiment","NA","0","0","0","yes","1024"
"undefined","undefined","undefined","undefined","black","no","legacy","0","uniform","undefined","undefined","undefined","102","102","205","102","102","NA","102","102","0","0","0","102","102","0","102","0","NA","102","0","Mon 24 Jun 2019 01:24:14 PM PDT","500","1000","The main experiment item","yes","NA","ABX_v3.osexp","/home/ubuntu/Desktop/panara","no","no","mono","no","18","no","white","no","yes","768","48","53","/home/ubuntu/Desktop/panara/subject-108.csv","Jazzy James","3.1.3","1.1.1.wav","2.1.1.wav","2.1.3.wav","0","0","space","0","NA","1078","34814","1078","NA","247784","space","2","1024","2","48000","-16","experiment","1.1.1.wav","2.1.3.wav","2.1.1.wav","108","even","833941","836484","835984","835233","787702","NA","832941","837237","764","NA","NA","832938","838316","543453","832938","248550","NA","832941","766","New experiment","NA","0","0","0","yes","1024"
"undefined","undefined","undefined","undefined","black","no","legacy","0","uniform","undefined","undefined","undefined","103","103","207","103","103","NA","103","103","0","0","0","103","103","0","103","0","NA","103","0","Mon 24 Jun 2019 01:24:14 PM PDT","500","1000","The main experiment item","yes","NA","ABX_v3.osexp","/home/ubuntu/Desktop/panara","no","no","mono","no","18","no","white","no","yes","768","49","53","/home/ubuntu/Desktop/panara/subject-108.csv","Jazzy James","3.1.3","2.2.1.wav","2.1.1.wav","2.1.3.wav","0","1","space","1","NA","367","34814","367","NA","247784","space","2","1024","2","48000","-16","experiment","2.2.1.wav","2.1.3.wav","2.1.1.wav","108","even","839469","841918","841418","840678","787702","NA","838469","842659","764","NA","NA","838466","843027","543453","838466","248550","NA","838469","766","New experiment","NA","0","0","0","yes","1024"
"undefined","undefined","undefined","undefined","black","no","legacy","0","uniform","undefined","undefined","undefined","104","104","209","104","104","NA","104","104","0","0","0","104","104","0","104","0","NA","104","0","Mon 24 Jun 2019 01:24:14 PM PDT","500","1000","The main experiment item","yes","NA","ABX_v3.osexp","/home/ubuntu/Desktop/panara","yes","no","mono","no","18","no","white","no","yes","768","50","53","/home/ubuntu/Desktop/panara/subject-108.csv","Jazzy James","3.1.3","1.2.5.wav","3.2.5.wav","3.2.3.wav","0","0","space","0","NA","1299","34814","1299","NA","247784","space","2","1024","2","48000","-16","experiment","3.2.3.wav","1.2.5.wav","3.2.5.wav","108","even","844172","846732","846232","845461","787702","NA","843172","847480","764","NA","NA","843169","848779","543453","843169","248550","NA","843172","766","New experiment","NA","0","0","0","yes","1024"
"undefined","undefined","undefined","undefined","black","no","legacy","0","uniform","undefined","undefined","undefined","105","105","211","105","105","NA","105","105","0","0","0","105","105","0","105","0","NA","105","0","Mon 24 Jun 2019 01:24:14 PM PDT","500","1000","The main experiment item","yes","NA","ABX_v3.osexp","/home/ubuntu/Desktop/panara","no","no","mono","no","18","no","white","no","yes","768","51","53","/home/ubuntu/Desktop/panara/subject-108.csv","Jazzy James","3.1.3","4.1.1.wav","4.1.3.wav","2.1.3.wav","0","0","space","0","NA","485","34814","485","NA","247784","space","2","1024","2","48000","-16","experiment","4.1.1.wav","2.1.3.wav","4.1.3.wav","108","even","849959","852416","851916","851203","787702","NA","848958","853150","764","NA","NA","848956","853635","543453","848956","248550","NA","848958","766","New experiment","NA","0","0","0","yes","1024"
"undefined","undefined","undefined","undefined","black","no","legacy","0","uniform","undefined","undefined","undefined","106","106","213","106","106","NA","106","106","0","0","0","106","106","0","106","0","NA","106","0","Mon 24 Jun 2019 01:24:14 PM PDT","500","1000","The main experiment item","yes","NA","ABX_v3.osexp","/home/ubuntu/Desktop/panara","yes","no","mono","no","18","no","white","no","yes","768","52","53","/home/ubuntu/Desktop/panara/subject-108.csv","Jazzy James","3.1.3","4.2.5.wav","4.1.5.wav","4.1.3.wav","0","1","space","1","NA","527","34814","527","NA","247784","space","2","1024","2","48000","-16","experiment","4.1.3.wav","4.2.5.wav","4.1.5.wav","108","even","854819","857317","856817","856085","787702","NA","853819","858083","764","NA","NA","853816","858611","543453","853816","248550","NA","853819","766","New experiment","NA","0","0","0","yes","1024"
"undefined","undefined","undefined","undefined","black","no","legacy","0","uniform","undefined","undefined","undefined","107","107","215","107","107","NA","107","107","0","0","0","107","107","0","107","0","NA","107","0","Mon 24 Jun 2019 01:24:14 PM PDT","500","1000","The main experiment item","yes","NA","ABX_v3.osexp","/home/ubuntu/Desktop/panara","yes","no","mono","no","18","no","white","no","yes","768","53","53","/home/ubuntu/Desktop/panara/subject-108.csv","Jazzy James","3.1.3","2.2.4.wav","2.2.2.wav","4.2.2.wav","0","1","space","1","NA","881","34814","881","NA","247784","space","2","1024","2","48000","-16","experiment","4.2.2.wav","2.2.4.wav","2.2.2.wav","108","even","859724","862164","861664","860940","787702","NA","858724","862905","764","NA","NA","858722","863787","543453","858722","248550","NA","858724","766","New experiment","NA","0","0","0","yes","1024"
"undefined","undefined","undefined","undefined","black","no","legacy","0","uniform","undefined","undefined","undefined","108","108","217","108","108","NA","108","108","0","0","0","108","108","0","108","0","NA","108","0","Mon 24 Jun 2019 01:24:14 PM PDT","500","1000","The main experiment item","yes","NA","ABX_v3.osexp","/home/ubuntu/Desktop/panara","no","no","mono","no","18","no","white","no","yes","768","54","53","/home/ubuntu/Desktop/panara/subject-108.csv","Jazzy James","3.1.3","4.2.1.wav","4.2.3.wav","4.1.3.wav","0","1","space","1","NA","663","34814","663","NA","247784","space","2","1024","2","48000","-16","experiment","4.2.1.wav","4.1.3.wav","4.2.3.wav","108","even","864949","867454","866954","866209","787702","NA","863949","868211","764","NA","NA","863946","868875","543453","863946","248550","NA","863949","766","New experiment","NA","0","0","0","yes","1024"
"undefined","undefined","undefined","undefined","black","no","legacy","0","uniform","undefined","undefined","undefined","109","109","219","109","109","NA","109","109","0","0","0","109","109","0","109","0","NA","109","0","Mon 24 Jun 2019 01:24:14 PM PDT","500","1000","The main experiment item","yes","NA","ABX_v3.osexp","/home/ubuntu/Desktop/panara","yes","no","mono","no","18","no","white","no","yes","768","55","53","/home/ubuntu/Desktop/panara/subject-108.csv","Jazzy James","3.1.3","1.2.3.wav","2.2.3.wav","2.2.1.wav","0","0","space","0","NA","1189","34814","1189","NA","247784","space","2","1024","2","48000","-16","experiment","2.2.1.wav","1.2.3.wav","2.2.3.wav","108","even","870034","872548","872048","871337","787702","NA","869034","873293","764","NA","NA","869031","874482","543453","869031","248550","NA","869034","766","New experiment","NA","0","0","0","yes","1024"
"undefined","undefined","undefined","undefined","black","no","legacy","0","uniform","undefined","undefined","undefined","110","110","221","110","110","NA","110","110","0","0","0","110","110","0","110","0","NA","110","0","Mon 24 Jun 2019 01:24:14 PM PDT","500","1000","The main experiment item","yes","NA","ABX_v3.osexp","/home/ubuntu/Desktop/panara","no","no","mono","no","18","no","white","no","yes","768","56","53","/home/ubuntu/Desktop/panara/subject-108.csv","Jazzy James","3.1.3","2.1.2.wav","2.1.4.wav","4.1.4.wav","0","1","space","1","NA","1209","34814","1209","NA","247784","space","2","1024","2","48000","-16","experiment","2.1.2.wav","4.1.4.wav","2.1.4.wav","108","even","875616","878117","877617","876861","787702","NA","874616","878832","764","NA","NA","874614","880042","543453","874614","248550","NA","874616","766","New experiment","NA","0","0","0","yes","1024"
"undefined","undefined","undefined","undefined","black","no","legacy","0","uniform","undefined","undefined","undefined","111","111","223","111","111","NA","111","111","0","0","0","111","111","0","111","0","NA","111","0","Mon 24 Jun 2019 01:24:14 PM PDT","500","1000","The main experiment item","yes","NA","ABX_v3.osexp","/home/ubuntu/Desktop/panara","no","no","mono","no","18","no","white","no","yes","768","57","53","/home/ubuntu/Desktop/panara/subject-108.csv","Jazzy James","3.1.3","4.1.2.wav","4.1.4.wav","4.2.4.wav","0","0","space","0","NA","2340","34814","2340","NA","247784","space","2","1024","2","48000","-16","experiment","4.1.2.wav","4.2.4.wav","4.1.4.wav","108","even","881208","883647","883147","882421","787702","NA","880208","884365","764","NA","NA","880205","886706","543453","880205","248550","NA","880208","766","New experiment","NA","0","0","0","yes","1024"
"undefined","undefined","undefined","undefined","black","no","legacy","0","uniform","undefined","undefined","undefined","112","112","225","112","112","NA","112","112","0","0","0","112","112","0","112","0","NA","112","0","Mon 24 Jun 2019 01:24:14 PM PDT","500","1000","The main experiment item","yes","NA","ABX_v3.osexp","/home/ubuntu/Desktop/panara","yes","no","mono","no","18","no","white","no","yes","768","58","53","/home/ubuntu/Desktop/panara/subject-108.csv","Jazzy James","3.1.3","1.2.3.wav","1.1.3.wav","1.1.1.wav","0","1","space","1","NA","638","34814","638","NA","247784","space","2","1024","2","48000","-16","experiment","1.1.1.wav","1.2.3.wav","1.1.3.wav","108","even","887868","890445","889945","889146","787702","NA","886868","891251","764","NA","NA","886866","891889","543453","886865","248550","NA","886868","766","New experiment","NA","0","0","0","yes","1024"
"undefined","undefined","undefined","undefined","black","no","legacy","0","uniform","undefined","undefined","undefined","113","113","227","113","113","NA","113","113","0","0","0","113","113","0","113","0","NA","113","0","Mon 24 Jun 2019 01:24:14 PM PDT","500","1000","The main experiment item","yes","NA","ABX_v3.osexp","/home/ubuntu/Desktop/panara","no","no","mono","no","18","no","white","no","yes","768","59","53","/home/ubuntu/Desktop/panara/subject-108.csv","Jazzy James","3.1.3","1.2.1.wav","1.1.1.wav","1.1.3.wav","0","0","space","0","NA","430","34814","430","NA","247784","space","2","1024","2","48000","-16","experiment","1.2.1.wav","1.1.3.wav","1.1.1.wav","108","even","893067","895656","895156","894372","787702","NA","892067","896434","764","NA","NA","892064","896865","543453","892064","248550","NA","892067","766","New experiment","NA","0","0","0","yes","1024"
