acc,accuracy,average_response_time,avg_rt,background,bidi,canvas_backend,compensation,coordinates,correct,correct_display_selecting,correct_welcome,count_A,count_B,count_ISI,count_X,count_break,count_determine_break,count_display_listening,count_display_selecting,count_experiment,count_finished,count_getting_started,count_new_inline_script,count_new_logger,count_new_loop,count_new_sequence,count_plain_block,count_setup_breaks,count_wait_nextitem,count_welcome,datetime,delay_ISI,delay_wait_nextitem,description,disable_garbage_collection,empty_column,experiment_file,experiment_path,flip_order,font_bold,font_family,font_italic,font_size,font_underline,foreground,form_clicks,fullscreen,height,live_row,live_row_plain_block,logfile,opensesame_codename,opensesame_version,play1,play2,play3,repeat_cycle,response,response_break,response_display_selecting,response_finished,response_time,response_time_break,response_time_display_selecting,response_time_finished,response_time_welcome,response_welcome,round_decimals,sound_buf_size,sound_channels,sound_freq,sound_sample_size,start,stimA,stimB,stimX,subject_nr,subject_parity,time_A,time_B,time_ISI,time_X,time_break,time_determine_break,time_display_listening,time_display_selecting,time_experiment,time_finished,time_getting_started,time_new_inline_script,time_new_logger,time_new_loop,time_new_sequence,time_plain_block,time_setup_breaks,time_wait_nextitem,time_welcome,title,to_break,total_correct,total_response_time,total_responses,uniform_coordinates,width
undefined,undefined,undefined,undefined,black,no,legacy,0,uniform,undefined,undefined,undefined,0,0,1,0,0,NA,0,0,0,0,0,0,0,0,0,0,NA,0,0,Thu 06 Jun 2019 12:44:04 PM PDT,500,1000,The main experiment item,yes,NA,ABX_v3.osexp,/home/ubuntu/Desktop/panara,yes,no,mono,no,18,no,white,no,yes,768,0,0,/home/ubuntu/Desktop/panara/subject-102.csv,Jazzy James,3.1.3,4.2.5.wav,4.2.5.wav,4.2.3.wav,0,1,NA,1,NA,1281,NA,1281,NA,7522721,1,2,1024,2,48000,-16,experiment,4.2.3.wav,4.2.5.wav,4.2.5.wav,102,even,7524566,7527021,7526521,7525793,NA,NA,7523566,7527810,743,NA,NA,7523563,7529091,NA,7523563,7523468,NA,7523566,746,New experiment,NA,0,0,0,yes,1024
undefined,undefined,undefined,undefined,black,no,legacy,0,uniform,undefined,undefined,undefined,1,1,3,1,1,NA,1,1,0,0,0,1,1,0,1,0,NA,1,0,Thu 06 Jun 2019 12:44:04 PM PDT,500,1000,The main experiment item,yes,NA,ABX_v3.osexp,/home/ubuntu/Desktop/panara,no,no,mono,no,18,no,white,no,yes,768,1,1,/home/ubuntu/Desktop/panara/subject-102.csv,Jazzy James,3.1.3,3.2.2.wav,3.2.4.wav,3.2.4.wav,0,1,NA,1,NA,1342,NA,1342,NA,7522721,1,2,1024,2,48000,-16,experiment,3.2.2.wav,3.2.4.wav,3.2.4.wav,102,even,7530415,7532955,7532455,7531719,NA,NA,7529415,7533701,743,NA,NA,7529412,7535043,NA,7529412,7523468,NA,7529415,746,New experiment,NA,0,0,0,yes,1024
undefined,undefined,undefined,undefined,black,no,legacy,0,uniform,undefined,undefined,undefined,2,2,5,2,2,NA,2,2,0,0,0,2,2,0,2,0,NA,2,0,Thu 06 Jun 2019 12:44:04 PM PDT,500,1000,The main experiment item,yes,NA,ABX_v3.osexp,/home/ubuntu/Desktop/panara,no,no,mono,no,18,no,white,no,yes,768,2,2,/home/ubuntu/Desktop/panara/subject-102.csv,Jazzy James,3.1.3,2.2.3.wav,2.2.5.wav,2.2.5.wav,0,1,NA,3,NA,2081,NA,2081,NA,7522721,1,2,1024,2,48000,-16,experiment,2.2.3.wav,2.2.5.wav,2.2.5.wav,102,even,7536251,7538737,7538237,7537477,NA,NA,7535250,7539473,743,NA,NA,7535247,7541555,NA,7535247,7523468,NA,7535250,746,New experiment,NA,0,0,0,yes,1024
undefined,undefined,undefined,undefined,black,no,legacy,0,uniform,undefined,undefined,undefined,3,3,7,3,3,NA,3,3,0,0,0,3,3,0,3,0,NA,3,0,Thu 06 Jun 2019 12:44:04 PM PDT,500,1000,The main experiment item,yes,NA,ABX_v3.osexp,/home/ubuntu/Desktop/panara,yes,no,mono,no,18,no,white,no,yes,768,3,3,/home/ubuntu/Desktop/panara/subject-102.csv,Jazzy James,3.1.3,2.2.3.wav,2.2.1.wav,2.2.1.wav,0,0,NA,0,NA,1391,NA,1391,NA,7522721,1,2,1024,2,48000,-16,experiment,2.2.1.wav,2.2.3.wav,2.2.1.wav,102,even,7542784,7545244,7544744,7544001,NA,NA,7541784,7545955,743,NA,NA,7541781,7547346,NA,7541781,7523468,NA,7541784,746,New experiment,NA,0,0,0,yes,1024
undefined,undefined,undefined,undefined,black,no,legacy,0,uniform,undefined,undefined,undefined,4,4,9,4,4,NA,4,4,0,0,0,4,4,0,4,0,NA,4,0,Thu 06 Jun 2019 12:44:04 PM PDT,500,1000,The main experiment item,yes,NA,ABX_v3.osexp,/home/ubuntu/Desktop/panara,no,no,mono,no,18,no,white,no,yes,768,4,4,/home/ubuntu/Desktop/panara/subject-102.csv,Jazzy James,3.1.3,4.2.1.wav,4.2.1.wav,4.2.3.wav,0,1,NA,1,NA,925,NA,925,NA,7522721,1,2,1024,2,48000,-16,experiment,4.2.1.wav,4.2.3.wav,4.2.1.wav,102,even,7548513,7550952,7550452,7549740,NA,NA,7547512,7551702,743,NA,NA,7547509,7552627,NA,7547509,7523468,NA,7547513,746,New experiment,NA,0,0,0,yes,1024
undefined,undefined,undefined,undefined,black,no,legacy,0,uniform,undefined,undefined,undefined,5,5,11,5,5,NA,5,5,0,0,0,5,5,0,5,0,NA,5,0,Thu 06 Jun 2019 12:44:04 PM PDT,500,1000,The main experiment item,yes,NA,ABX_v3.osexp,/home/ubuntu/Desktop/panara,yes,no,mono,no,18,no,white,no,yes,768,5,5,/home/ubuntu/Desktop/panara/subject-102.csv,Jazzy James,3.1.3,2.1.3.wav,2.1.3.wav,2.1.1.wav,0,1,NA,1,NA,2285,NA,2285,NA,7522721,1,2,1024,2,48000,-16,experiment,2.1.1.wav,2.1.3.wav,2.1.3.wav,102,even,7553832,7556359,7555859,7555113,NA,NA,7552831,7557116,743,NA,NA,7552829,7559402,NA,7552829,7523468,NA,7552832,746,New experiment,NA,0,0,0,yes,1024
undefined,undefined,undefined,undefined,black,no,legacy,0,uniform,undefined,undefined,undefined,6,6,13,6,6,NA,6,6,0,0,0,6,6,0,6,0,NA,6,0,Thu 06 Jun 2019 12:44:04 PM PDT,500,1000,The main experiment item,yes,NA,ABX_v3.osexp,/home/ubuntu/Desktop/panara,yes,no,mono,no,18,no,white,no,yes,768,6,6,/home/ubuntu/Desktop/panara/subject-102.csv,Jazzy James,3.1.3,4.1.3.wav,4.1.1.wav,4.1.1.wav,0,1,NA,1,NA,1620,NA,1620,NA,7522721,1,2,1024,2,48000,-16,experiment,4.1.1.wav,4.1.3.wav,4.1.1.wav,102,even,7560599,7563078,7562578,7561840,NA,NA,7559599,7563797,743,NA,NA,7559596,7565417,NA,7559596,7523468,NA,7559599,746,New experiment,NA,0,0,0,yes,1024
undefined,undefined,undefined,undefined,black,no,legacy,0,uniform,undefined,undefined,undefined,7,7,15,7,7,NA,7,7,0,0,0,7,7,0,7,0,NA,7,0,Thu 06 Jun 2019 12:44:04 PM PDT,500,1000,The main experiment item,yes,NA,ABX_v3.osexp,/home/ubuntu/Desktop/panara,no,no,mono,no,18,no,white,no,yes,768,7,7,/home/ubuntu/Desktop/panara/subject-102.csv,Jazzy James,3.1.3,4.1.3.wav,4.1.3.wav,4.1.5.wav,0,1,NA,1,NA,2450,NA,2450,NA,7522721,1,2,1024,2,48000,-16,experiment,4.1.3.wav,4.1.5.wav,4.1.3.wav,102,even,7566593,7569067,7568567,7567851,NA,NA,7565593,7569782,743,NA,NA,7565590,7572233,NA,7565590,7523468,NA,7565593,746,New experiment,NA,0,0,0,yes,1024
undefined,undefined,undefined,undefined,black,no,legacy,0,uniform,undefined,undefined,undefined,8,8,17,8,8,NA,8,8,0,0,0,8,8,0,8,0,NA,8,0,Thu 06 Jun 2019 12:44:04 PM PDT,500,1000,The main experiment item,yes,NA,ABX_v3.osexp,/home/ubuntu/Desktop/panara,yes,no,mono,no,18,no,white,no,yes,768,8,8,/home/ubuntu/Desktop/panara/subject-102.csv,Jazzy James,3.1.3,2.1.3.wav,2.1.1.wav,2.1.1.wav,0,0,NA,0,NA,1579,NA,1579,NA,7522721,1,2,1024,2,48000,-16,experiment,2.1.1.wav,2.1.3.wav,2.1.1.wav,102,even,7573402,7575918,7575418,7574655,NA,NA,7572402,7576677,743,NA,NA,7572399,7578256,NA,7572399,7523468,NA,7572402,746,New experiment,NA,0,0,0,yes,1024
undefined,undefined,undefined,undefined,black,no,legacy,0,uniform,undefined,undefined,undefined,9,9,19,9,9,NA,9,9,0,0,0,9,9,0,9,0,NA,9,0,Thu 06 Jun 2019 12:44:04 PM PDT,500,1000,The main experiment item,yes,NA,ABX_v3.osexp,/home/ubuntu/Desktop/panara,no,no,mono,no,18,no,white,no,yes,768,9,9,/home/ubuntu/Desktop/panara/subject-102.csv,Jazzy James,3.1.3,1.1.1.wav,1.1.3.wav,1.1.3.wav,0,0,NA,0,NA,1872,NA,1872,NA,7522721,1,2,1024,2,48000,-16,experiment,1.1.1.wav,1.1.3.wav,1.1.3.wav,102,even,7579459,7582073,7581573,7580764,NA,NA,7578458,7582889,743,NA,NA,7578456,7584761,NA,7578456,7523468,NA,7578459,746,New experiment,NA,0,0,0,yes,1024
undefined,undefined,undefined,undefined,black,no,legacy,0,uniform,undefined,undefined,undefined,10,10,21,10,10,NA,10,10,0,0,0,10,10,0,10,0,NA,10,0,Thu 06 Jun 2019 12:44:04 PM PDT,500,1000,The main experiment item,yes,NA,ABX_v3.osexp,/home/ubuntu/Desktop/panara,no,no,mono,no,18,no,white,no,yes,768,10,10,/home/ubuntu/Desktop/panara/subject-102.csv,Jazzy James,3.1.3,3.1.3.wav,3.1.3.wav,3.1.5.wav,0,0,NA,0,NA,1073,NA,1073,NA,7522721,1,2,1024,2,48000,-16,experiment,3.1.3.wav,3.1.5.wav,3.1.3.wav,102,even,7585905,7588438,7587938,7587157,NA,NA,7584905,7589238,743,NA,NA,7584903,7590312,NA,7584903,7523468,NA,7584905,746,New experiment,NA,0,0,0,yes,1024
undefined,undefined,undefined,undefined,black,no,legacy,0,uniform,undefined,undefined,undefined,11,11,23,11,11,NA,11,11,0,0,0,11,11,0,11,0,NA,11,0,Thu 06 Jun 2019 12:44:04 PM PDT,500,1000,The main experiment item,yes,NA,ABX_v3.osexp,/home/ubuntu/Desktop/panara,no,no,mono,no,18,no,white,no,yes,768,11,11,/home/ubuntu/Desktop/panara/subject-102.csv,Jazzy James,3.1.3,2.1.3.wav,2.1.5.wav,2.1.5.wav,0,0,NA,0,NA,2396,NA,2396,NA,7522721,1,2,1024,2,48000,-16,experiment,2.1.3.wav,2.1.5.wav,2.1.5.wav,102,even,7591506,7594021,7593521,7592775,NA,NA,7590505,7594771,743,NA,NA,7590502,7597167,NA,7590502,7523468,NA,7590506,746,New experiment,NA,0,0,0,yes,1024
undefined,undefined,undefined,undefined,black,no,legacy,0,uniform,undefined,undefined,undefined,12,12,25,12,12,NA,12,12,0,0,0,12,12,0,12,0,NA,12,0,Thu 06 Jun 2019 12:44:04 PM PDT,500,1000,The main experiment item,yes,NA,ABX_v3.osexp,/home/ubuntu/Desktop/panara,no,no,mono,no,18,no,white,no,yes,768,12,12,/home/ubuntu/Desktop/panara/subject-102.csv,Jazzy James,3.1.3,4.2.2.wav,4.2.4.wav,4.2.4.wav,0,0,NA,0,NA,2686,NA,2686,NA,7522721,1,2,1024,2,48000,-16,experiment,4.2.2.wav,4.2.4.wav,4.2.4.wav,102,even,7598349,7600808,7600308,7599575,NA,NA,7597349,7601552,743,NA,NA,7597347,7604239,NA,7597346,7523468,NA,7597349,746,New experiment,NA,0,0,0,yes,1024
undefined,undefined,undefined,undefined,black,no,legacy,0,uniform,undefined,undefined,undefined,13,13,27,13,13,NA,13,13,0,0,0,13,13,0,13,0,NA,13,0,Thu 06 Jun 2019 12:44:04 PM PDT,500,1000,The main experiment item,yes,NA,ABX_v3.osexp,/home/ubuntu/Desktop/panara,no,no,mono,no,18,no,white,no,yes,768,13,13,/home/ubuntu/Desktop/panara/subject-102.csv,Jazzy James,3.1.3,4.2.2.wav,4.2.2.wav,4.2.4.wav,0,1,NA,1,NA,847,NA,847,NA,7522721,1,2,1024,2,48000,-16,experiment,4.2.2.wav,4.2.4.wav,4.2.2.wav,102,even,7605440,7607897,7607396,7606680,NA,NA,7604439,7608615,743,NA,NA,7604437,7609462,NA,7604437,7523468,NA,7604440,746,New experiment,NA,0,0,0,yes,1024
undefined,undefined,undefined,undefined,black,no,legacy,0,uniform,undefined,undefined,undefined,14,14,29,14,14,NA,14,14,0,0,0,14,14,0,14,0,NA,14,0,Thu 06 Jun 2019 12:44:04 PM PDT,500,1000,The main experiment item,yes,NA,ABX_v3.osexp,/home/ubuntu/Desktop/panara,no,no,mono,no,18,no,white,no,yes,768,14,14,/home/ubuntu/Desktop/panara/subject-102.csv,Jazzy James,3.1.3,2.2.3.wav,2.2.3.wav,2.2.5.wav,0,1,NA,1,NA,739,NA,739,NA,7522721,1,2,1024,2,48000,-16,experiment,2.2.3.wav,2.2.5.wav,2.2.3.wav,102,even,7610641,7613093,7612593,7611882,NA,NA,7609641,7613811,743,NA,NA,7609638,7614550,NA,7609638,7523468,NA,7609641,746,New experiment,NA,0,0,0,yes,1024
undefined,undefined,undefined,undefined,black,no,legacy,0,uniform,undefined,undefined,undefined,15,15,31,15,15,NA,15,15,0,0,0,15,15,0,15,0,NA,15,0,Thu 06 Jun 2019 12:44:04 PM PDT,500,1000,The main experiment item,yes,NA,ABX_v3.osexp,/home/ubuntu/Desktop/panara,no,no,mono,no,18,no,white,no,yes,768,15,15,/home/ubuntu/Desktop/panara/subject-102.csv,Jazzy James,3.1.3,1.1.3.wav,1.1.3.wav,1.1.5.wav,0,0,NA,0,NA,2019,NA,2019,NA,7522721,1,2,1024,2,48000,-16,experiment,1.1.3.wav,1.1.5.wav,1.1.3.wav,102,even,7615732,7618289,7617789,7617002,NA,NA,7614732,7619058,743,NA,NA,7614729,7621078,NA,7614729,7523468,NA,7614732,746,New experiment,NA,0,0,0,yes,1024
undefined,undefined,undefined,undefined,black,no,legacy,0,uniform,undefined,undefined,undefined,16,16,33,16,16,NA,16,16,0,0,0,16,16,0,16,0,NA,16,0,Thu 06 Jun 2019 12:44:04 PM PDT,500,1000,The main experiment item,yes,NA,ABX_v3.osexp,/home/ubuntu/Desktop/panara,no,no,mono,no,18,no,white,no,yes,768,16,16,/home/ubuntu/Desktop/panara/subject-102.csv,Jazzy James,3.1.3,1.2.2.wav,1.2.4.wav,1.2.4.wav,0,0,NA,0,NA,1520,NA,1520,NA,7522721,1,2,1024,2,48000,-16,experiment,1.2.2.wav,1.2.4.wav,1.2.4.wav,102,even,7622268,7624832,7624332,7623548,NA,NA,7621268,7625573,743,NA,NA,7621265,7627093,NA,7621265,7523468,NA,7621268,746,New experiment,NA,0,0,0,yes,1024
undefined,undefined,undefined,undefined,black,no,legacy,0,uniform,undefined,undefined,undefined,17,17,35,17,17,NA,17,17,0,0,0,17,17,0,17,0,NA,17,0,Thu 06 Jun 2019 12:44:04 PM PDT,500,1000,The main experiment item,yes,NA,ABX_v3.osexp,/home/ubuntu/Desktop/panara,yes,no,mono,no,18,no,white,no,yes,768,17,17,/home/ubuntu/Desktop/panara/subject-102.csv,Jazzy James,3.1.3,4.2.3.wav,4.2.3.wav,4.2.1.wav,0,1,NA,1,NA,2705,NA,2705,NA,7522721,1,2,1024,2,48000,-16,experiment,4.2.1.wav,4.2.3.wav,4.2.3.wav,102,even,7628273,7630760,7630259,7629518,NA,NA,7627273,7631499,743,NA,NA,7627270,7634205,NA,7627270,7523468,NA,7627273,746,New experiment,NA,0,0,0,yes,1024
undefined,undefined,undefined,undefined,black,no,legacy,0,uniform,undefined,undefined,undefined,18,18,37,18,18,NA,18,18,0,0,0,18,18,0,18,0,NA,18,0,Thu 06 Jun 2019 12:44:04 PM PDT,500,1000,The main experiment item,yes,NA,ABX_v3.osexp,/home/ubuntu/Desktop/panara,yes,no,mono,no,18,no,white,no,yes,768,18,18,/home/ubuntu/Desktop/panara/subject-102.csv,Jazzy James,3.1.3,3.2.4.wav,3.2.2.wav,3.2.2.wav,0,0,NA,0,NA,1286,NA,1286,NA,7522721,1,2,1024,2,48000,-16,experiment,3.2.2.wav,3.2.4.wav,3.2.2.wav,102,even,7635388,7637931,7637431,7636655,NA,NA,7634388,7638718,743,NA,NA,7634385,7640004,NA,7634385,7523468,NA,7634388,746,New experiment,NA,0,0,0,yes,1024
undefined,undefined,undefined,undefined,black,no,legacy,0,uniform,undefined,undefined,undefined,19,19,39,19,19,NA,19,19,0,0,0,19,19,0,19,0,NA,19,0,Thu 06 Jun 2019 12:44:04 PM PDT,500,1000,The main experiment item,yes,NA,ABX_v3.osexp,/home/ubuntu/Desktop/panara,no,no,mono,no,18,no,white,no,yes,768,19,19,/home/ubuntu/Desktop/panara/subject-102.csv,Jazzy James,3.1.3,3.1.1.wav,3.1.3.wav,3.1.3.wav,0,0,NA,0,NA,1735,NA,1735,NA,7522721,1,2,1024,2,48000,-16,experiment,3.1.1.wav,3.1.3.wav,3.1.3.wav,102,even,7641164,7643665,7643165,7642411,NA,NA,7640164,7644429,743,NA,NA,7640161,7646164,NA,7640161,7523468,NA,7640164,746,New experiment,NA,0,0,0,yes,1024
undefined,undefined,undefined,undefined,black,no,legacy,0,uniform,undefined,undefined,undefined,20,20,41,20,20,NA,20,20,0,0,0,20,20,0,20,0,NA,20,0,Thu 06 Jun 2019 12:44:04 PM PDT,500,1000,The main experiment item,yes,NA,ABX_v3.osexp,/home/ubuntu/Desktop/panara,yes,no,mono,no,18,no,white,no,yes,768,20,20,/home/ubuntu/Desktop/panara/subject-102.csv,Jazzy James,3.1.3,5.2.5.wav,5.2.5.wav,5.2.3.wav,0,1,NA,1,NA,2664,NA,2664,NA,7522721,1,2,1024,2,48000,-16,experiment,5.2.3.wav,5.2.5.wav,5.2.5.wav,102,even,7647377,7649873,7649373,7648617,NA,NA,7646376,7650587,743,NA,NA,7646373,7653252,NA,7646373,7523468,NA,7646377,746,New experiment,NA,0,0,0,yes,1024
undefined,undefined,undefined,undefined,black,no,legacy,0,uniform,undefined,undefined,undefined,21,21,43,21,21,NA,21,21,0,0,0,21,21,0,21,0,NA,21,0,Thu 06 Jun 2019 12:44:04 PM PDT,500,1000,The main experiment item,yes,NA,ABX_v3.osexp,/home/ubuntu/Desktop/panara,no,no,mono,no,18,no,white,no,yes,768,21,21,/home/ubuntu/Desktop/panara/subject-102.csv,Jazzy James,3.1.3,1.2.3.wav,1.2.5.wav,1.2.5.wav,0,0,NA,0,NA,2500,NA,2500,NA,7522721,1,2,1024,2,48000,-16,experiment,1.2.3.wav,1.2.5.wav,1.2.5.wav,102,even,7654455,7657001,7656501,7655739,NA,NA,7653455,7657783,743,NA,NA,7653453,7660283,NA,7653453,7523468,NA,7653455,746,New experiment,NA,0,0,0,yes,1024
undefined,undefined,undefined,undefined,black,no,legacy,0,uniform,undefined,undefined,undefined,22,22,45,22,22,NA,22,22,0,0,0,22,22,0,22,0,NA,22,0,Thu 06 Jun 2019 12:44:04 PM PDT,500,1000,The main experiment item,yes,NA,ABX_v3.osexp,/home/ubuntu/Desktop/panara,no,no,mono,no,18,no,white,no,yes,768,22,22,/home/ubuntu/Desktop/panara/subject-102.csv,Jazzy James,3.1.3,1.2.1.wav,1.2.3.wav,1.2.3.wav,0,0,NA,0,NA,870,NA,870,NA,7522721,1,2,1024,2,48000,-16,experiment,1.2.1.wav,1.2.3.wav,1.2.3.wav,102,even,7661503,7664043,7663543,7662783,NA,NA,7660503,7664829,743,NA,NA,7660500,7665700,NA,7660500,7523468,NA,7660503,746,New experiment,NA,0,0,0,yes,1024
undefined,undefined,undefined,undefined,black,no,legacy,0,uniform,undefined,undefined,undefined,23,23,47,23,23,NA,23,23,0,0,0,23,23,0,23,0,NA,23,0,Thu 06 Jun 2019 12:44:04 PM PDT,500,1000,The main experiment item,yes,NA,ABX_v3.osexp,/home/ubuntu/Desktop/panara,yes,no,mono,no,18,no,white,no,yes,768,23,23,/home/ubuntu/Desktop/panara/subject-102.csv,Jazzy James,3.1.3,3.1.4.wav,3.1.4.wav,3.1.2.wav,0,0,NA,0,NA,1459,NA,1459,NA,7522721,1,2,1024,2,48000,-16,experiment,3.1.2.wav,3.1.4.wav,3.1.4.wav,102,even,7666915,7669461,7668961,7668200,NA,NA,7665914,7670216,743,NA,NA,7665912,7671675,NA,7665912,7523468,NA,7665914,746,New experiment,NA,0,0,0,yes,1024
undefined,undefined,undefined,undefined,black,no,legacy,0,uniform,undefined,undefined,undefined,24,24,49,24,24,NA,24,24,0,0,0,24,24,0,24,0,NA,24,0,Thu 06 Jun 2019 12:44:04 PM PDT,500,1000,The main experiment item,yes,NA,ABX_v3.osexp,/home/ubuntu/Desktop/panara,no,no,mono,no,18,no,white,no,yes,768,24,24,/home/ubuntu/Desktop/panara/subject-102.csv,Jazzy James,3.1.3,3.2.3.wav,3.2.3.wav,3.2.5.wav,0,1,NA,1,NA,909,NA,909,NA,7522721,1,2,1024,2,48000,-16,experiment,3.2.3.wav,3.2.5.wav,3.2.3.wav,102,even,7672876,7675413,7674913,7674128,NA,NA,7671876,7676165,743,NA,NA,7671873,7677074,NA,7671873,7523468,NA,7671876,746,New experiment,NA,0,0,0,yes,1024
undefined,undefined,undefined,undefined,black,no,legacy,0,uniform,undefined,undefined,undefined,25,25,51,25,25,NA,25,25,0,0,0,25,25,0,25,0,NA,25,0,Thu 06 Jun 2019 12:44:04 PM PDT,500,1000,The main experiment item,yes,NA,ABX_v3.osexp,/home/ubuntu/Desktop/panara,no,no,mono,no,18,no,white,no,yes,768,25,25,/home/ubuntu/Desktop/panara/subject-102.csv,Jazzy James,3.1.3,1.2.1.wav,1.2.1.wav,1.2.3.wav,0,0,NA,0,NA,2128,NA,2128,NA,7522721,1,2,1024,2,48000,-16,experiment,1.2.1.wav,1.2.3.wav,1.2.1.wav,102,even,7678238,7680763,7680263,7679508,NA,NA,7677238,7681546,743,NA,NA,7677235,7683675,NA,7677235,7523468,NA,7677238,746,New experiment,NA,0,0,0,yes,1024
undefined,undefined,undefined,undefined,black,no,legacy,0,uniform,undefined,undefined,undefined,26,26,53,26,26,NA,26,26,0,0,0,26,26,0,26,0,NA,26,0,Thu 06 Jun 2019 12:44:04 PM PDT,500,1000,The main experiment item,yes,NA,ABX_v3.osexp,/home/ubuntu/Desktop/panara,yes,no,mono,no,18,no,white,no,yes,768,26,26,/home/ubuntu/Desktop/panara/subject-102.csv,Jazzy James,3.1.3,2.1.4.wav,2.1.2.wav,2.1.2.wav,0,1,NA,1,NA,2022,NA,2022,NA,7522721,1,2,1024,2,48000,-16,experiment,2.1.2.wav,2.1.4.wav,2.1.2.wav,102,even,7684894,7687352,7686852,7686121,NA,NA,7683893,7688115,743,NA,NA,7683891,7690137,NA,7683890,7523468,NA,7683894,746,New experiment,NA,0,0,0,yes,1024
undefined,undefined,undefined,undefined,black,no,legacy,0,uniform,undefined,undefined,undefined,27,27,55,27,27,NA,27,27,0,0,0,27,27,0,27,0,NA,27,0,Thu 06 Jun 2019 12:44:04 PM PDT,500,1000,The main experiment item,yes,NA,ABX_v3.osexp,/home/ubuntu/Desktop/panara,no,no,mono,no,18,no,white,no,yes,768,27,27,/home/ubuntu/Desktop/panara/subject-102.csv,Jazzy James,3.1.3,5.2.2.wav,5.2.4.wav,5.2.4.wav,0,0,NA,0,NA,1267,NA,1267,NA,7522721,1,2,1024,2,48000,-16,experiment,5.2.2.wav,5.2.4.wav,5.2.4.wav,102,even,7691363,7693843,7693343,7692597,NA,NA,7690362,7694606,743,NA,NA,7690360,7695874,NA,7690359,7523468,NA,7690363,746,New experiment,NA,0,0,0,yes,1024
undefined,undefined,undefined,undefined,black,no,legacy,0,uniform,undefined,undefined,undefined,28,28,57,28,28,NA,28,28,0,0,0,28,28,0,28,0,NA,28,0,Thu 06 Jun 2019 12:44:04 PM PDT,500,1000,The main experiment item,yes,NA,ABX_v3.osexp,/home/ubuntu/Desktop/panara,yes,no,mono,no,18,no,white,no,yes,768,28,28,/home/ubuntu/Desktop/panara/subject-102.csv,Jazzy James,3.1.3,4.1.5.wav,4.1.5.wav,4.1.3.wav,0,1,NA,1,NA,1775,NA,1775,NA,7522721,1,2,1024,2,48000,-16,experiment,4.1.3.wav,4.1.5.wav,4.1.5.wav,102,even,7697037,7699507,7699007,7698293,NA,NA,7696037,7700225,743,NA,NA,7696034,7702000,NA,7696034,7523468,NA,7696037,746,New experiment,NA,0,0,0,yes,1024
undefined,undefined,undefined,undefined,black,no,legacy,0,uniform,undefined,undefined,undefined,29,29,59,29,29,NA,29,29,0,0,0,29,29,0,29,0,NA,29,0,Thu 06 Jun 2019 12:44:04 PM PDT,500,1000,The main experiment item,yes,NA,ABX_v3.osexp,/home/ubuntu/Desktop/panara,yes,no,mono,no,18,no,white,no,yes,768,29,29,/home/ubuntu/Desktop/panara/subject-102.csv,Jazzy James,3.1.3,3.2.5.wav,3.2.5.wav,3.2.3.wav,0,1,NA,1,NA,1318,NA,1318,NA,7522721,1,2,1024,2,48000,-16,experiment,3.2.3.wav,3.2.5.wav,3.2.5.wav,102,even,7703151,7705720,7705220,7704436,NA,NA,7702151,7706467,743,NA,NA,7702148,7707785,NA,7702148,7523468,NA,7702151,746,New experiment,NA,0,0,0,yes,1024
undefined,undefined,undefined,undefined,black,no,legacy,0,uniform,undefined,undefined,undefined,30,30,61,30,30,NA,30,30,0,0,0,30,30,0,30,0,NA,30,0,Thu 06 Jun 2019 12:44:04 PM PDT,500,1000,The main experiment item,yes,NA,ABX_v3.osexp,/home/ubuntu/Desktop/panara,no,no,mono,no,18,no,white,no,yes,768,30,30,/home/ubuntu/Desktop/panara/subject-102.csv,Jazzy James,3.1.3,1.2.2.wav,1.2.2.wav,1.2.4.wav,0,1,NA,1,NA,941,NA,941,NA,7522721,1,2,1024,2,48000,-16,experiment,1.2.2.wav,1.2.4.wav,1.2.2.wav,102,even,7708945,7711509,7711009,7710230,NA,NA,7707945,7712266,743,NA,NA,7707943,7713208,NA,7707943,7523468,NA,7707945,746,New experiment,NA,0,0,0,yes,1024
undefined,undefined,undefined,undefined,black,no,legacy,0,uniform,undefined,undefined,undefined,31,31,63,31,31,NA,31,31,0,0,0,31,31,0,31,0,NA,31,0,Thu 06 Jun 2019 12:44:04 PM PDT,500,1000,The main experiment item,yes,NA,ABX_v3.osexp,/home/ubuntu/Desktop/panara,no,no,mono,no,18,no,white,no,yes,768,31,31,/home/ubuntu/Desktop/panara/subject-102.csv,Jazzy James,3.1.3,5.2.2.wav,5.2.2.wav,5.2.4.wav,0,1,NA,1,NA,2381,NA,2381,NA,7522721,1,2,1024,2,48000,-16,experiment,5.2.2.wav,5.2.4.wav,5.2.2.wav,102,even,7714385,7716830,7716330,7715621,NA,NA,7713385,7717579,743,NA,NA,7713382,7719960,NA,7713382,7523468,NA,7713385,746,New experiment,NA,0,0,0,yes,1024
undefined,undefined,undefined,undefined,black,no,legacy,0,uniform,undefined,undefined,undefined,32,32,65,32,32,NA,32,32,0,0,0,32,32,0,32,0,NA,32,0,Thu 06 Jun 2019 12:44:04 PM PDT,500,1000,The main experiment item,yes,NA,ABX_v3.osexp,/home/ubuntu/Desktop/panara,no,no,mono,no,18,no,white,no,yes,768,32,32,/home/ubuntu/Desktop/panara/subject-102.csv,Jazzy James,3.1.3,3.2.1.wav,3.2.3.wav,3.2.3.wav,0,0,NA,0,NA,975,NA,975,NA,7522721,1,2,1024,2,48000,-16,experiment,3.2.1.wav,3.2.3.wav,3.2.3.wav,102,even,7721182,7723685,7723185,7722443,NA,NA,7720181,7724464,743,NA,NA,7720179,7725439,NA,7720179,7523468,NA,7720182,746,New experiment,NA,0,0,0,yes,1024
undefined,undefined,undefined,undefined,black,no,legacy,0,uniform,undefined,undefined,undefined,33,33,67,33,33,NA,33,33,0,0,0,33,33,0,33,0,NA,33,0,Thu 06 Jun 2019 12:44:04 PM PDT,500,1000,The main experiment item,yes,NA,ABX_v3.osexp,/home/ubuntu/Desktop/panara,no,no,mono,no,18,no,white,no,yes,768,33,33,/home/ubuntu/Desktop/panara/subject-102.csv,Jazzy James,3.1.3,1.1.2.wav,1.1.4.wav,1.1.4.wav,0,0,NA,0,NA,1566,NA,1566,NA,7522721,1,2,1024,2,48000,-16,experiment,1.1.2.wav,1.1.4.wav,1.1.4.wav,102,even,7726648,7729274,7728774,7727974,NA,NA,7725648,7730057,743,NA,NA,7725646,7731624,NA,7725646,7523468,NA,7725648,746,New experiment,NA,0,0,0,yes,1024
undefined,undefined,undefined,undefined,black,no,legacy,0,uniform,undefined,undefined,undefined,34,34,69,34,34,NA,34,34,0,0,0,34,34,0,34,0,NA,34,0,Thu 06 Jun 2019 12:44:04 PM PDT,500,1000,The main experiment item,yes,NA,ABX_v3.osexp,/home/ubuntu/Desktop/panara,yes,no,mono,no,18,no,white,no,yes,768,34,34,/home/ubuntu/Desktop/panara/subject-102.csv,Jazzy James,3.1.3,1.1.4.wav,1.1.2.wav,1.1.2.wav,0,0,NA,0,NA,843,NA,843,NA,7522721,1,2,1024,2,48000,-16,experiment,1.1.2.wav,1.1.4.wav,1.1.2.wav,102,even,7732768,7735334,7734834,7734048,NA,NA,7731767,7736132,743,NA,NA,7731765,7736975,NA,7731765,7523468,NA,7731768,746,New experiment,NA,0,0,0,yes,1024
undefined,undefined,undefined,undefined,black,no,legacy,0,uniform,undefined,undefined,undefined,35,35,71,35,35,NA,35,35,0,0,0,35,35,0,35,0,NA,35,0,Thu 06 Jun 2019 12:44:04 PM PDT,500,1000,The main experiment item,yes,NA,ABX_v3.osexp,/home/ubuntu/Desktop/panara,no,no,mono,no,18,no,white,no,yes,768,35,35,/home/ubuntu/Desktop/panara/subject-102.csv,Jazzy James,3.1.3,1.2.3.wav,1.2.3.wav,1.2.5.wav,0,0,NA,0,NA,727,NA,727,NA,7522721,1,2,1024,2,48000,-16,experiment,1.2.3.wav,1.2.5.wav,1.2.3.wav,102,even,7738121,7740662,7740161,7739401,NA,NA,7737121,7741430,743,NA,NA,7737119,7742158,NA,7737118,7523468,NA,7737121,746,New experiment,NA,0,0,0,yes,1024
undefined,undefined,undefined,undefined,black,no,legacy,0,uniform,undefined,undefined,undefined,36,36,73,36,36,NA,36,36,0,0,0,36,36,0,36,0,NA,36,0,Thu 06 Jun 2019 12:44:04 PM PDT,500,1000,The main experiment item,yes,NA,ABX_v3.osexp,/home/ubuntu/Desktop/panara,yes,no,mono,no,18,no,white,no,yes,768,36,36,/home/ubuntu/Desktop/panara/subject-102.csv,Jazzy James,3.1.3,2.2.4.wav,2.2.2.wav,2.2.2.wav,0,0,NA,0,NA,655,NA,655,NA,7522721,1,2,1024,2,48000,-16,experiment,2.2.2.wav,2.2.4.wav,2.2.2.wav,102,even,7743380,7745841,7745341,7744632,NA,NA,7742379,7746590,743,NA,NA,7742376,7747246,NA,7742376,7523468,NA,7742380,746,New experiment,NA,0,0,0,yes,1024
undefined,undefined,undefined,undefined,black,no,legacy,0,uniform,undefined,undefined,undefined,37,37,75,37,37,NA,37,37,0,0,0,37,37,0,37,0,NA,37,0,Thu 06 Jun 2019 12:44:04 PM PDT,500,1000,The main experiment item,yes,NA,ABX_v3.osexp,/home/ubuntu/Desktop/panara,yes,no,mono,no,18,no,white,no,yes,768,37,37,/home/ubuntu/Desktop/panara/subject-102.csv,Jazzy James,3.1.3,4.2.5.wav,4.2.3.wav,4.2.3.wav,0,1,NA,1,NA,1085,NA,1085,NA,7522721,1,2,1024,2,48000,-16,experiment,4.2.3.wav,4.2.5.wav,4.2.3.wav,102,even,7748446,7750930,7750430,7749690,NA,NA,7747445,7751689,743,NA,NA,7747443,7752774,NA,7747443,7523468,NA,7747446,746,New experiment,NA,0,0,0,yes,1024
undefined,undefined,undefined,undefined,black,no,legacy,0,uniform,undefined,undefined,undefined,38,38,77,38,38,NA,38,38,0,0,0,38,38,0,38,0,NA,38,0,Thu 06 Jun 2019 12:44:04 PM PDT,500,1000,The main experiment item,yes,NA,ABX_v3.osexp,/home/ubuntu/Desktop/panara,yes,no,mono,no,18,no,white,no,yes,768,38,38,/home/ubuntu/Desktop/panara/subject-102.csv,Jazzy James,3.1.3,1.1.3.wav,1.1.1.wav,1.1.1.wav,0,1,NA,1,NA,243,NA,243,NA,7522721,1,2,1024,2,48000,-16,experiment,1.1.1.wav,1.1.3.wav,1.1.1.wav,102,even,7753937,7756487,7755987,7755204,NA,NA,7752937,7757289,743,NA,NA,7752934,7757533,NA,7752934,7523468,NA,7752937,746,New experiment,NA,0,0,0,yes,1024
undefined,undefined,undefined,undefined,black,no,legacy,0,uniform,undefined,undefined,undefined,39,39,79,39,39,NA,39,39,0,0,0,39,39,0,39,0,NA,39,0,Thu 06 Jun 2019 12:44:04 PM PDT,500,1000,The main experiment item,yes,NA,ABX_v3.osexp,/home/ubuntu/Desktop/panara,yes,no,mono,no,18,no,white,no,yes,768,39,39,/home/ubuntu/Desktop/panara/subject-102.csv,Jazzy James,3.1.3,5.2.3.wav,5.2.3.wav,5.2.1.wav,0,1,NA,1,NA,1273,NA,1273,NA,7522721,1,2,1024,2,48000,-16,experiment,5.2.1.wav,5.2.3.wav,5.2.3.wav,102,even,7758725,7761162,7760662,7759952,NA,NA,7757724,7761875,743,NA,NA,7757722,7763149,NA,7757722,7523468,NA,7757725,746,New experiment,NA,0,0,0,yes,1024
undefined,undefined,undefined,undefined,black,no,legacy,0,uniform,undefined,undefined,undefined,40,40,81,40,40,NA,40,40,0,0,0,40,40,0,40,0,NA,40,0,Thu 06 Jun 2019 12:44:04 PM PDT,500,1000,The main experiment item,yes,NA,ABX_v3.osexp,/home/ubuntu/Desktop/panara,no,no,mono,no,18,no,white,no,yes,768,40,40,/home/ubuntu/Desktop/panara/subject-102.csv,Jazzy James,3.1.3,2.2.2.wav,2.2.4.wav,2.2.4.wav,0,0,NA,0,NA,1635,NA,1635,NA,7522721,1,2,1024,2,48000,-16,experiment,2.2.2.wav,2.2.4.wav,2.2.4.wav,102,even,7764308,7766774,7766274,7765542,NA,NA,7763308,7767489,743,NA,NA,7763305,7769124,NA,7763305,7523468,NA,7763308,746,New experiment,NA,0,0,0,yes,1024
undefined,undefined,undefined,undefined,black,no,legacy,0,uniform,undefined,undefined,undefined,41,41,83,41,41,NA,41,41,0,0,0,41,41,0,41,0,NA,41,0,Thu 06 Jun 2019 12:44:04 PM PDT,500,1000,The main experiment item,yes,NA,ABX_v3.osexp,/home/ubuntu/Desktop/panara,yes,no,mono,no,18,no,white,no,yes,768,41,41,/home/ubuntu/Desktop/panara/subject-102.csv,Jazzy James,3.1.3,5.2.5.wav,5.2.3.wav,5.2.3.wav,0,0,NA,0,NA,433,NA,433,NA,7522721,1,2,1024,2,48000,-16,experiment,5.2.3.wav,5.2.5.wav,5.2.3.wav,102,even,7770279,7772745,7772245,7771512,NA,NA,7769278,7773459,743,NA,NA,7769276,7773893,NA,7769276,7523468,NA,7769278,746,New experiment,NA,0,0,0,yes,1024
undefined,undefined,undefined,undefined,black,no,legacy,0,uniform,undefined,undefined,undefined,42,42,85,42,42,NA,42,42,0,0,0,42,42,0,42,0,NA,42,0,Thu 06 Jun 2019 12:44:04 PM PDT,500,1000,The main experiment item,yes,NA,ABX_v3.osexp,/home/ubuntu/Desktop/panara,yes,no,mono,no,18,no,white,no,yes,768,42,42,/home/ubuntu/Desktop/panara/subject-102.csv,Jazzy James,3.1.3,4.1.3.wav,4.1.3.wav,4.1.1.wav,0,0,NA,0,NA,1271,NA,1271,NA,7522721,1,2,1024,2,48000,-16,experiment,4.1.1.wav,4.1.3.wav,4.1.3.wav,102,even,7775069,7777540,7777040,7776313,NA,NA,7774069,7778292,743,NA,NA,7774066,7779564,NA,7774066,7523468,NA,7774069,746,New experiment,NA,0,0,0,yes,1024
undefined,undefined,undefined,undefined,black,no,legacy,0,uniform,undefined,undefined,undefined,43,43,87,43,43,NA,43,43,0,0,0,43,43,0,43,0,NA,43,0,Thu 06 Jun 2019 12:44:04 PM PDT,500,1000,The main experiment item,yes,NA,ABX_v3.osexp,/home/ubuntu/Desktop/panara,no,no,mono,no,18,no,white,no,yes,768,43,43,/home/ubuntu/Desktop/panara/subject-102.csv,Jazzy James,3.1.3,4.1.2.wav,4.1.4.wav,4.1.4.wav,0,1,NA,1,NA,1531,NA,1531,NA,7522721,1,2,1024,2,48000,-16,experiment,4.1.2.wav,4.1.4.wav,4.1.4.wav,102,even,7780751,7783204,7782704,7781981,NA,NA,7779750,7783920,743,NA,NA,7779747,7785451,NA,7779747,7523468,NA,7779750,746,New experiment,NA,0,0,0,yes,1024
undefined,undefined,undefined,undefined,black,no,legacy,0,uniform,undefined,undefined,undefined,44,44,89,44,44,NA,44,44,0,0,0,44,44,0,44,0,NA,44,0,Thu 06 Jun 2019 12:44:04 PM PDT,500,1000,The main experiment item,yes,NA,ABX_v3.osexp,/home/ubuntu/Desktop/panara,yes,no,mono,no,18,no,white,no,yes,768,44,44,/home/ubuntu/Desktop/panara/subject-102.csv,Jazzy James,3.1.3,3.2.3.wav,3.2.1.wav,3.2.1.wav,0,1,NA,1,NA,1312,NA,1312,NA,7522721,1,2,1024,2,48000,-16,experiment,3.2.1.wav,3.2.3.wav,3.2.1.wav,102,even,7786625,7789111,7788611,7787868,NA,NA,7785625,7789850,743,NA,NA,7785622,7791163,NA,7785622,7523468,NA,7785625,746,New experiment,NA,0,0,0,yes,1024
undefined,undefined,undefined,undefined,black,no,legacy,0,uniform,undefined,undefined,undefined,45,45,91,45,45,NA,45,45,0,0,0,45,45,0,45,0,NA,45,0,Thu 06 Jun 2019 12:44:04 PM PDT,500,1000,The main experiment item,yes,NA,ABX_v3.osexp,/home/ubuntu/Desktop/panara,yes,no,mono,no,18,no,white,no,yes,768,45,45,/home/ubuntu/Desktop/panara/subject-102.csv,Jazzy James,3.1.3,2.1.5.wav,2.1.3.wav,2.1.3.wav,0,0,NA,0,NA,622,NA,622,NA,7522721,1,2,1024,2,48000,-16,experiment,2.1.3.wav,2.1.5.wav,2.1.3.wav,102,even,7792333,7794840,7794340,7793594,NA,NA,7791333,7795588,743,NA,NA,7791330,7796210,NA,7791330,7523468,NA,7791333,746,New experiment,NA,0,0,0,yes,1024
undefined,undefined,undefined,undefined,black,no,legacy,0,uniform,undefined,undefined,undefined,46,46,93,46,46,NA,46,46,0,0,0,46,46,0,46,0,NA,46,0,Thu 06 Jun 2019 12:44:04 PM PDT,500,1000,The main experiment item,yes,NA,ABX_v3.osexp,/home/ubuntu/Desktop/panara,no,no,mono,no,18,no,white,no,yes,768,46,46,/home/ubuntu/Desktop/panara/subject-102.csv,Jazzy James,3.1.3,2.2.1.wav,2.2.3.wav,2.2.3.wav,0,0,NA,0,NA,1179,NA,1179,NA,7522721,1,2,1024,2,48000,-16,experiment,2.2.1.wav,2.2.3.wav,2.2.3.wav,102,even,7797363,7799793,7799293,7798583,NA,NA,7796363,7800520,743,NA,NA,7796361,7801699,NA,7796361,7523468,NA,7796363,746,New experiment,NA,0,0,0,yes,1024
undefined,undefined,undefined,undefined,black,no,legacy,0,uniform,undefined,undefined,undefined,47,47,95,47,47,NA,47,47,0,0,0,47,47,0,47,0,NA,47,0,Thu 06 Jun 2019 12:44:04 PM PDT,500,1000,The main experiment item,yes,NA,ABX_v3.osexp,/home/ubuntu/Desktop/panara,no,no,mono,no,18,no,white,no,yes,768,47,47,/home/ubuntu/Desktop/panara/subject-102.csv,Jazzy James,3.1.3,2.1.2.wav,2.1.4.wav,2.1.4.wav,0,1,NA,1,NA,1562,NA,1562,NA,7522721,1,2,1024,2,48000,-16,experiment,2.1.2.wav,2.1.4.wav,2.1.4.wav,102,even,7802849,7805342,7804842,7804090,NA,NA,7801848,7806096,743,NA,NA,7801846,7807659,NA,7801846,7523468,NA,7801849,746,New experiment,NA,0,0,0,yes,1024
undefined,undefined,undefined,undefined,black,no,legacy,0,uniform,undefined,undefined,undefined,48,48,97,48,48,NA,48,48,0,0,0,48,48,0,48,0,NA,48,0,Thu 06 Jun 2019 12:44:04 PM PDT,500,1000,The main experiment item,yes,NA,ABX_v3.osexp,/home/ubuntu/Desktop/panara,yes,no,mono,no,18,no,white,no,yes,768,48,48,/home/ubuntu/Desktop/panara/subject-102.csv,Jazzy James,3.1.3,3.1.5.wav,3.1.5.wav,3.1.3.wav,0,1,NA,1,NA,2480,NA,2480,NA,7522721,1,2,1024,2,48000,-16,experiment,3.1.3.wav,3.1.5.wav,3.1.5.wav,102,even,7808782,7811336,7810836,7810054,NA,NA,7807782,7812073,743,NA,NA,7807780,7814553,NA,7807780,7523468,NA,7807782,746,New experiment,NA,0,0,0,yes,1024
undefined,undefined,undefined,undefined,black,no,legacy,0,uniform,undefined,undefined,undefined,49,49,99,49,49,NA,49,49,0,0,0,49,49,0,49,0,NA,49,0,Thu 06 Jun 2019 12:44:04 PM PDT,500,1000,The main experiment item,yes,NA,ABX_v3.osexp,/home/ubuntu/Desktop/panara,no,no,mono,no,18,no,white,no,yes,768,49,49,/home/ubuntu/Desktop/panara/subject-102.csv,Jazzy James,3.1.3,4.1.2.wav,4.1.2.wav,4.1.4.wav,0,1,NA,1,NA,711,NA,711,NA,7522721,1,2,1024,2,48000,-16,experiment,4.1.2.wav,4.1.4.wav,4.1.2.wav,102,even,7815703,7818167,7817666,7816928,NA,NA,7814703,7818922,743,NA,NA,7814700,7819634,NA,7814700,7523468,NA,7814703,746,New experiment,NA,0,0,0,yes,1024
undefined,undefined,undefined,undefined,black,no,legacy,0,uniform,undefined,undefined,undefined,50,50,101,50,50,NA,50,50,0,0,0,50,50,0,50,0,NA,50,0,Thu 06 Jun 2019 12:44:04 PM PDT,500,1000,The main experiment item,yes,NA,ABX_v3.osexp,/home/ubuntu/Desktop/panara,yes,no,mono,no,18,no,white,no,yes,768,50,50,/home/ubuntu/Desktop/panara/subject-102.csv,Jazzy James,3.1.3,3.1.4.wav,3.1.2.wav,3.1.2.wav,0,0,0,0,NA,2202,5633,2202,NA,7522721,1,2,1024,2,48000,-16,experiment,3.1.2.wav,3.1.4.wav,3.1.2.wav,102,even,7826435,7828979,7828479,7827704,7819799,NA,7825435,7829759,743,NA,NA,7819797,7831961,NA,7819797,7523468,NA,7825435,746,New experiment,NA,0,0,0,yes,1024
undefined,undefined,undefined,undefined,black,no,legacy,0,uniform,undefined,undefined,undefined,51,51,103,51,51,NA,51,51,0,0,0,51,51,0,51,0,NA,51,0,Thu 06 Jun 2019 12:44:04 PM PDT,500,1000,The main experiment item,yes,NA,ABX_v3.osexp,/home/ubuntu/Desktop/panara,yes,no,mono,no,18,no,white,no,yes,768,51,51,/home/ubuntu/Desktop/panara/subject-102.csv,Jazzy James,3.1.3,5.2.3.wav,5.2.1.wav,5.2.1.wav,0,1,0,1,NA,1323,5633,1323,NA,7522721,1,2,1024,2,48000,-16,experiment,5.2.1.wav,5.2.3.wav,5.2.1.wav,102,even,7833162,7835605,7835105,7834395,7819799,NA,7832162,7836333,743,NA,NA,7832159,7837657,NA,7832159,7523468,NA,7832162,746,New experiment,NA,0,0,0,yes,1024
undefined,undefined,undefined,undefined,black,no,legacy,0,uniform,undefined,undefined,undefined,52,52,105,52,52,NA,52,52,0,0,0,52,52,0,52,0,NA,52,0,Thu 06 Jun 2019 12:44:04 PM PDT,500,1000,The main experiment item,yes,NA,ABX_v3.osexp,/home/ubuntu/Desktop/panara,no,no,mono,no,18,no,white,no,yes,768,52,52,/home/ubuntu/Desktop/panara/subject-102.csv,Jazzy James,3.1.3,1.1.3.wav,1.1.5.wav,1.1.5.wav,0,1,0,1,NA,1180,5633,1180,NA,7522721,1,2,1024,2,48000,-16,experiment,1.1.3.wav,1.1.5.wav,1.1.5.wav,102,even,7838814,7841440,7840940,7840134,7819799,NA,7837814,7842211,743,NA,NA,7837811,7843391,NA,7837811,7523468,NA,7837814,746,New experiment,NA,0,0,0,yes,1024
undefined,undefined,undefined,undefined,black,no,legacy,0,uniform,undefined,undefined,undefined,53,53,107,53,53,NA,53,53,0,0,0,53,53,0,53,0,NA,53,0,Thu 06 Jun 2019 12:44:04 PM PDT,500,1000,The main experiment item,yes,NA,ABX_v3.osexp,/home/ubuntu/Desktop/panara,yes,no,mono,no,18,no,white,no,yes,768,53,53,/home/ubuntu/Desktop/panara/subject-102.csv,Jazzy James,3.1.3,3.1.3.wav,3.1.1.wav,3.1.1.wav,0,0,0,0,NA,1371,5633,1371,NA,7522721,1,2,1024,2,48000,-16,experiment,3.1.1.wav,3.1.3.wav,3.1.1.wav,102,even,7844534,7847019,7846519,7845763,7819799,NA,7843533,7847772,743,NA,NA,7843531,7849143,NA,7843530,7523468,NA,7843534,746,New experiment,NA,0,0,0,yes,1024
undefined,undefined,undefined,undefined,black,no,legacy,0,uniform,undefined,undefined,undefined,54,54,109,54,54,NA,54,54,0,0,0,54,54,0,54,0,NA,54,0,Thu 06 Jun 2019 12:44:04 PM PDT,500,1000,The main experiment item,yes,NA,ABX_v3.osexp,/home/ubuntu/Desktop/panara,yes,no,mono,no,18,no,white,no,yes,768,0,53,/home/ubuntu/Desktop/panara/subject-102.csv,Jazzy James,3.1.3,1.1.5.wav,1.1.3.wav,1.2.3.wav,0,1,0,1,NA,850,5633,850,NA,7522721,1,2,1024,2,48000,-16,experiment,1.2.3.wav,1.1.5.wav,1.1.3.wav,102,even,7850323,7852927,7852427,7851613,7819799,NA,7849322,7853692,743,NA,NA,7849320,7854543,7849257,7849320,7523468,NA,7849323,746,New experiment,NA,0,0,0,yes,1024
undefined,undefined,undefined,undefined,black,no,legacy,0,uniform,undefined,undefined,undefined,55,55,111,55,55,NA,55,55,0,0,0,55,55,0,55,0,NA,55,0,Thu 06 Jun 2019 12:44:04 PM PDT,500,1000,The main experiment item,yes,NA,ABX_v3.osexp,/home/ubuntu/Desktop/panara,no,no,mono,no,18,no,white,no,yes,768,1,53,/home/ubuntu/Desktop/panara/subject-102.csv,Jazzy James,3.1.3,4.2.3.wav,4.1.3.wav,4.1.5.wav,0,1,0,1,NA,1655,5633,1655,NA,7522721,1,2,1024,2,48000,-16,experiment,4.2.3.wav,4.1.5.wav,4.1.3.wav,102,even,7855725,7858206,7857706,7856990,7819799,NA,7854725,7858920,743,NA,NA,7854722,7860575,7849257,7854722,7523468,NA,7854725,746,New experiment,NA,0,0,0,yes,1024
undefined,undefined,undefined,undefined,black,no,legacy,0,uniform,undefined,undefined,undefined,56,56,113,56,56,NA,56,56,0,0,0,56,56,0,56,0,NA,56,0,Thu 06 Jun 2019 12:44:04 PM PDT,500,1000,The main experiment item,yes,NA,ABX_v3.osexp,/home/ubuntu/Desktop/panara,no,no,mono,no,18,no,white,no,yes,768,2,53,/home/ubuntu/Desktop/panara/subject-102.csv,Jazzy James,3.1.3,4.2.2.wav,4.2.4.wav,3.2.4.wav,0,0,0,0,NA,545,5633,545,NA,7522721,1,2,1024,2,48000,-16,experiment,4.2.2.wav,3.2.4.wav,4.2.4.wav,102,even,7861726,7864154,7863653,7862941,7819799,NA,7860725,7864901,743,NA,NA,7860723,7865446,7849257,7860723,7523468,NA,7860726,746,New experiment,NA,0,0,0,yes,1024
undefined,undefined,undefined,undefined,black,no,legacy,0,uniform,undefined,undefined,undefined,57,57,115,57,57,NA,57,57,0,0,0,57,57,0,57,0,NA,57,0,Thu 06 Jun 2019 12:44:04 PM PDT,500,1000,The main experiment item,yes,NA,ABX_v3.osexp,/home/ubuntu/Desktop/panara,no,no,mono,no,18,no,white,no,yes,768,3,53,/home/ubuntu/Desktop/panara/subject-102.csv,Jazzy James,3.1.3,1.1.3.wav,1.1.5.wav,3.1.5.wav,0,1,0,1,NA,884,5633,884,NA,7522721,1,2,1024,2,48000,-16,experiment,1.1.3.wav,3.1.5.wav,1.1.5.wav,102,even,7866608,7869209,7868709,7867923,7819799,NA,7865608,7869994,743,NA,NA,7865605,7870879,7849257,7865605,7523468,NA,7865608,746,New experiment,NA,0,0,0,yes,1024
undefined,undefined,undefined,undefined,black,no,legacy,0,uniform,undefined,undefined,undefined,58,58,117,58,58,NA,58,58,0,0,0,58,58,0,58,0,NA,58,0,Thu 06 Jun 2019 12:44:04 PM PDT,500,1000,The main experiment item,yes,NA,ABX_v3.osexp,/home/ubuntu/Desktop/panara,yes,no,mono,no,18,no,white,no,yes,768,4,53,/home/ubuntu/Desktop/panara/subject-102.csv,Jazzy James,3.1.3,1.2.3.wav,3.2.3.wav,3.2.1.wav,0,0,0,0,NA,1613,5633,1613,NA,7522721,1,2,1024,2,48000,-16,experiment,3.2.1.wav,1.2.3.wav,3.2.3.wav,102,even,7872057,7874582,7874082,7873330,7819799,NA,7871057,7875345,743,NA,NA,7871055,7876958,7849257,7871055,7523468,NA,7871057,746,New experiment,NA,0,0,0,yes,1024
undefined,undefined,undefined,undefined,black,no,legacy,0,uniform,undefined,undefined,undefined,59,59,119,59,59,NA,59,59,0,0,0,59,59,0,59,0,NA,59,0,Thu 06 Jun 2019 12:44:04 PM PDT,500,1000,The main experiment item,yes,NA,ABX_v3.osexp,/home/ubuntu/Desktop/panara,no,no,mono,no,18,no,white,no,yes,768,5,53,/home/ubuntu/Desktop/panara/subject-102.csv,Jazzy James,3.1.3,4.2.2.wav,3.2.2.wav,3.2.4.wav,0,1,0,1,NA,662,5633,662,NA,7522721,1,2,1024,2,48000,-16,experiment,4.2.2.wav,3.2.4.wav,3.2.2.wav,102,even,7878120,7880637,7880137,7879363,7819799,NA,7877120,7881390,743,NA,NA,7877117,7882053,7849257,7877117,7523468,NA,7877120,746,New experiment,NA,0,0,0,yes,1024
undefined,undefined,undefined,undefined,black,no,legacy,0,uniform,undefined,undefined,undefined,60,60,121,60,60,NA,60,60,0,0,0,60,60,0,60,0,NA,60,0,Thu 06 Jun 2019 12:44:04 PM PDT,500,1000,The main experiment item,yes,NA,ABX_v3.osexp,/home/ubuntu/Desktop/panara,no,no,mono,no,18,no,white,no,yes,768,6,53,/home/ubuntu/Desktop/panara/subject-102.csv,Jazzy James,3.1.3,1.2.1.wav,1.2.3.wav,2.2.3.wav,0,1,0,1,NA,767,5633,767,NA,7522721,1,2,1024,2,48000,-16,experiment,1.2.1.wav,2.2.3.wav,1.2.3.wav,102,even,7883216,7885781,7885281,7884510,7819799,NA,7882216,7886549,743,NA,NA,7882213,7887317,7849257,7882213,7523468,NA,7882216,746,New experiment,NA,0,0,0,yes,1024
undefined,undefined,undefined,undefined,black,no,legacy,0,uniform,undefined,undefined,undefined,61,61,123,61,61,NA,61,61,0,0,0,61,61,0,61,0,NA,61,0,Thu 06 Jun 2019 12:44:04 PM PDT,500,1000,The main experiment item,yes,NA,ABX_v3.osexp,/home/ubuntu/Desktop/panara,no,no,mono,no,18,no,white,no,yes,768,7,53,/home/ubuntu/Desktop/panara/subject-102.csv,Jazzy James,3.1.3,4.2.2.wav,4.1.2.wav,4.1.4.wav,0,1,0,1,NA,868,5633,868,NA,7522721,1,2,1024,2,48000,-16,experiment,4.2.2.wav,4.1.4.wav,4.1.2.wav,102,even,7888476,7890945,7890445,7889734,7819799,NA,7887476,7891664,743,NA,NA,7887473,7892532,7849257,7887473,7523468,NA,7887476,746,New experiment,NA,0,0,0,yes,1024
undefined,undefined,undefined,undefined,black,no,legacy,0,uniform,undefined,undefined,undefined,62,62,125,62,62,NA,62,62,0,0,0,62,62,0,62,0,NA,62,0,Thu 06 Jun 2019 12:44:04 PM PDT,500,1000,The main experiment item,yes,NA,ABX_v3.osexp,/home/ubuntu/Desktop/panara,no,no,mono,no,18,no,white,no,yes,768,8,53,/home/ubuntu/Desktop/panara/subject-102.csv,Jazzy James,3.1.3,4.2.1.wav,4.2.3.wav,4.1.3.wav,0,1,0,1,NA,1003,5633,1003,NA,7522721,1,2,1024,2,48000,-16,experiment,4.2.1.wav,4.1.3.wav,4.2.3.wav,102,even,7893684,7896258,7895758,7894900,7819799,NA,7892684,7897016,743,NA,NA,7892681,7898020,7849257,7892681,7523468,NA,7892684,746,New experiment,NA,0,0,0,yes,1024
undefined,undefined,undefined,undefined,black,no,legacy,0,uniform,undefined,undefined,undefined,63,63,127,63,63,NA,63,63,0,0,0,63,63,0,63,0,NA,63,0,Thu 06 Jun 2019 12:44:04 PM PDT,500,1000,The main experiment item,yes,NA,ABX_v3.osexp,/home/ubuntu/Desktop/panara,no,no,mono,no,18,no,white,no,yes,768,9,53,/home/ubuntu/Desktop/panara/subject-102.csv,Jazzy James,3.1.3,2.1.3.wav,2.2.3.wav,2.2.5.wav,0,0,0,0,NA,547,5633,547,NA,7522721,1,2,1024,2,48000,-16,experiment,2.1.3.wav,2.2.5.wav,2.2.3.wav,102,even,7899174,7901639,7901139,7900417,7819799,NA,7898174,7902393,743,NA,NA,7898171,7902941,7849257,7898171,7523468,NA,7898174,746,New experiment,NA,0,0,0,yes,1024
undefined,undefined,undefined,undefined,black,no,legacy,0,uniform,undefined,undefined,undefined,64,64,129,64,64,NA,64,64,0,0,0,64,64,0,64,0,NA,64,0,Thu 06 Jun 2019 12:44:04 PM PDT,500,1000,The main experiment item,yes,NA,ABX_v3.osexp,/home/ubuntu/Desktop/panara,yes,no,mono,no,18,no,white,no,yes,768,10,53,/home/ubuntu/Desktop/panara/subject-102.csv,Jazzy James,3.1.3,2.2.3.wav,4.2.3.wav,4.2.1.wav,0,1,0,1,NA,1688,5633,1688,NA,7522721,1,2,1024,2,48000,-16,experiment,4.2.1.wav,2.2.3.wav,4.2.3.wav,102,even,7904083,7906562,7906062,7905308,7819799,NA,7903082,7907284,743,NA,NA,7903080,7908972,7849257,7903080,7523468,NA,7903083,746,New experiment,NA,0,0,0,yes,1024
undefined,undefined,undefined,undefined,black,no,legacy,0,uniform,undefined,undefined,undefined,65,65,131,65,65,NA,65,65,0,0,0,65,65,0,65,0,NA,65,0,Thu 06 Jun 2019 12:44:04 PM PDT,500,1000,The main experiment item,yes,NA,ABX_v3.osexp,/home/ubuntu/Desktop/panara,no,no,mono,no,18,no,white,no,yes,768,11,53,/home/ubuntu/Desktop/panara/subject-102.csv,Jazzy James,3.1.3,3.2.1.wav,3.1.1.wav,3.1.3.wav,0,1,0,1,NA,3233,5633,3233,NA,7522721,1,2,1024,2,48000,-16,experiment,3.2.1.wav,3.1.3.wav,3.1.1.wav,102,even,7910136,7912631,7912131,7911382,7819799,NA,7909135,7913386,743,NA,NA,7909133,7916620,7849257,7909133,7523468,NA,7909136,746,New experiment,NA,0,0,0,yes,1024
undefined,undefined,undefined,undefined,black,no,legacy,0,uniform,undefined,undefined,undefined,66,66,133,66,66,NA,66,66,0,0,0,66,66,0,66,0,NA,66,0,Thu 06 Jun 2019 12:44:04 PM PDT,500,1000,The main experiment item,yes,NA,ABX_v3.osexp,/home/ubuntu/Desktop/panara,no,no,mono,no,18,no,white,no,yes,768,12,53,/home/ubuntu/Desktop/panara/subject-102.csv,Jazzy James,3.1.3,1.2.2.wav,1.1.2.wav,1.1.4.wav,0,0,0,0,NA,874,5633,874,NA,7522721,1,2,1024,2,48000,-16,experiment,1.2.2.wav,1.1.4.wav,1.1.2.wav,102,even,7917773,7920364,7919864,7919054,7819799,NA,7916772,7921144,743,NA,NA,7916770,7922018,7849257,7916769,7523468,NA,7916773,746,New experiment,NA,0,0,0,yes,1024
undefined,undefined,undefined,undefined,black,no,legacy,0,uniform,undefined,undefined,undefined,67,67,135,67,67,NA,67,67,0,0,0,67,67,0,67,0,NA,67,0,Thu 06 Jun 2019 12:44:04 PM PDT,500,1000,The main experiment item,yes,NA,ABX_v3.osexp,/home/ubuntu/Desktop/panara,no,no,mono,no,18,no,white,no,yes,768,13,53,/home/ubuntu/Desktop/panara/subject-102.csv,Jazzy James,3.1.3,3.2.3.wav,4.2.3.wav,4.2.5.wav,0,0,0,0,NA,533,5633,533,NA,7522721,1,2,1024,2,48000,-16,experiment,3.2.3.wav,4.2.5.wav,4.2.3.wav,102,even,7923175,7925679,7925179,7924430,7819799,NA,7922175,7926398,743,NA,NA,7922173,7926931,7849257,7922173,7523468,NA,7922175,746,New experiment,NA,0,0,0,yes,1024
undefined,undefined,undefined,undefined,black,no,legacy,0,uniform,undefined,undefined,undefined,68,68,137,68,68,NA,68,68,0,0,0,68,68,0,68,0,NA,68,0,Thu 06 Jun 2019 12:44:04 PM PDT,500,1000,The main experiment item,yes,NA,ABX_v3.osexp,/home/ubuntu/Desktop/panara,yes,no,mono,no,18,no,white,no,yes,768,14,53,/home/ubuntu/Desktop/panara/subject-102.csv,Jazzy James,3.1.3,2.1.4.wav,4.1.4.wav,4.1.2.wav,0,0,0,0,NA,2858,5633,2858,NA,7522721,1,2,1024,2,48000,-16,experiment,4.1.2.wav,2.1.4.wav,4.1.4.wav,102,even,7928092,7930565,7930065,7929343,7819799,NA,7927092,7931319,743,NA,NA,7927089,7934178,7849257,7927089,7523468,NA,7927092,746,New experiment,NA,0,0,0,yes,1024
undefined,undefined,undefined,undefined,black,no,legacy,0,uniform,undefined,undefined,undefined,69,69,139,69,69,NA,69,69,0,0,0,69,69,0,69,0,NA,69,0,Thu 06 Jun 2019 12:44:04 PM PDT,500,1000,The main experiment item,yes,NA,ABX_v3.osexp,/home/ubuntu/Desktop/panara,yes,no,mono,no,18,no,white,no,yes,768,15,53,/home/ubuntu/Desktop/panara/subject-102.csv,Jazzy James,3.1.3,3.1.5.wav,3.1.3.wav,3.2.3.wav,0,0,0,0,NA,1974,5633,1974,NA,7522721,1,2,1024,2,48000,-16,experiment,3.2.3.wav,3.1.5.wav,3.1.3.wav,102,even,7935365,7937898,7937398,7936644,7819799,NA,7934364,7938644,743,NA,NA,7934361,7940618,7849257,7934361,7523468,NA,7934365,746,New experiment,NA,0,0,0,yes,1024
undefined,undefined,undefined,undefined,black,no,legacy,0,uniform,undefined,undefined,undefined,70,70,141,70,70,NA,70,70,0,0,0,70,70,0,70,0,NA,70,0,Thu 06 Jun 2019 12:44:04 PM PDT,500,1000,The main experiment item,yes,NA,ABX_v3.osexp,/home/ubuntu/Desktop/panara,no,no,mono,no,18,no,white,no,yes,768,16,53,/home/ubuntu/Desktop/panara/subject-102.csv,Jazzy James,3.1.3,3.1.1.wav,1.1.1.wav,1.1.3.wav,0,0,0,0,NA,1100,5633,1100,NA,7522721,1,2,1024,2,48000,-16,experiment,3.1.1.wav,1.1.3.wav,1.1.1.wav,102,even,7941793,7944353,7943853,7943043,7819799,NA,7940792,7945164,743,NA,NA,7940790,7946265,7849257,7940790,7523468,NA,7940793,746,New experiment,NA,0,0,0,yes,1024
undefined,undefined,undefined,undefined,black,no,legacy,0,uniform,undefined,undefined,undefined,71,71,143,71,71,NA,71,71,0,0,0,71,71,0,71,0,NA,71,0,Thu 06 Jun 2019 12:44:04 PM PDT,500,1000,The main experiment item,yes,NA,ABX_v3.osexp,/home/ubuntu/Desktop/panara,no,no,mono,no,18,no,white,no,yes,768,17,53,/home/ubuntu/Desktop/panara/subject-102.csv,Jazzy James,3.1.3,3.1.2.wav,1.1.2.wav,1.1.4.wav,0,0,0,0,NA,1805,5633,1805,NA,7522721,1,2,1024,2,48000,-16,experiment,3.1.2.wav,1.1.4.wav,1.1.2.wav,102,even,7947423,7950006,7949506,7948697,7819799,NA,7946423,7950788,743,NA,NA,7946420,7952594,7849257,7946420,7523468,NA,7946423,746,New experiment,NA,0,0,0,yes,1024
undefined,undefined,undefined,undefined,black,no,legacy,0,uniform,undefined,undefined,undefined,72,72,145,72,72,NA,72,72,0,0,0,72,72,0,72,0,NA,72,0,Thu 06 Jun 2019 12:44:04 PM PDT,500,1000,The main experiment item,yes,NA,ABX_v3.osexp,/home/ubuntu/Desktop/panara,no,no,mono,no,18,no,white,no,yes,768,18,53,/home/ubuntu/Desktop/panara/subject-102.csv,Jazzy James,3.1.3,3.1.2.wav,3.1.4.wav,4.1.4.wav,0,1,0,1,NA,904,5633,904,NA,7522721,1,2,1024,2,48000,-16,experiment,3.1.2.wav,4.1.4.wav,3.1.4.wav,102,even,7953762,7956299,7955799,7955032,7819799,NA,7952761,7957025,743,NA,NA,7952759,7957929,7849257,7952758,7523468,NA,7952762,746,New experiment,NA,0,0,0,yes,1024
undefined,undefined,undefined,undefined,black,no,legacy,0,uniform,undefined,undefined,undefined,73,73,147,73,73,NA,73,73,0,0,0,73,73,0,73,0,NA,73,0,Thu 06 Jun 2019 12:44:04 PM PDT,500,1000,The main experiment item,yes,NA,ABX_v3.osexp,/home/ubuntu/Desktop/panara,yes,no,mono,no,18,no,white,no,yes,768,19,53,/home/ubuntu/Desktop/panara/subject-102.csv,Jazzy James,3.1.3,2.1.5.wav,2.1.3.wav,1.1.3.wav,0,1,0,1,NA,1769,5633,1769,NA,7522721,1,2,1024,2,48000,-16,experiment,1.1.3.wav,2.1.5.wav,2.1.3.wav,102,even,7959080,7961589,7961089,7960339,7819799,NA,7958079,7962398,743,NA,NA,7958077,7964168,7849257,7958077,7523468,NA,7958080,746,New experiment,NA,0,0,0,yes,1024
undefined,undefined,undefined,undefined,black,no,legacy,0,uniform,undefined,undefined,undefined,74,74,149,74,74,NA,74,74,0,0,0,74,74,0,74,0,NA,74,0,Thu 06 Jun 2019 12:44:04 PM PDT,500,1000,The main experiment item,yes,NA,ABX_v3.osexp,/home/ubuntu/Desktop/panara,no,no,mono,no,18,no,white,no,yes,768,20,53,/home/ubuntu/Desktop/panara/subject-102.csv,Jazzy James,3.1.3,1.2.1.wav,1.2.3.wav,3.2.3.wav,0,1,0,1,NA,509,5633,509,NA,7522721,1,2,1024,2,48000,-16,experiment,1.2.1.wav,3.2.3.wav,1.2.3.wav,102,even,7965287,7967847,7967347,7966566,7819799,NA,7964286,7968594,743,NA,NA,7964284,7969103,7849257,7964284,7523468,NA,7964287,746,New experiment,NA,0,0,0,yes,1024
undefined,undefined,undefined,undefined,black,no,legacy,0,uniform,undefined,undefined,undefined,75,75,151,75,75,NA,75,75,0,0,0,75,75,0,75,0,NA,75,0,Thu 06 Jun 2019 12:44:04 PM PDT,500,1000,The main experiment item,yes,NA,ABX_v3.osexp,/home/ubuntu/Desktop/panara,no,no,mono,no,18,no,white,no,yes,768,21,53,/home/ubuntu/Desktop/panara/subject-102.csv,Jazzy James,3.1.3,1.1.2.wav,2.1.2.wav,2.1.4.wav,0,0,0,0,NA,544,5633,544,NA,7522721,1,2,1024,2,48000,-16,experiment,1.1.2.wav,2.1.4.wav,2.1.2.wav,102,even,7970280,7972844,7972344,7971594,7819799,NA,7969280,7973591,743,NA,NA,7969277,7974135,7849257,7969277,7523468,NA,7969280,746,New experiment,NA,0,0,0,yes,1024
undefined,undefined,undefined,undefined,black,no,legacy,0,uniform,undefined,undefined,undefined,76,76,153,76,76,NA,76,76,0,0,0,76,76,0,76,0,NA,76,0,Thu 06 Jun 2019 12:44:04 PM PDT,500,1000,The main experiment item,yes,NA,ABX_v3.osexp,/home/ubuntu/Desktop/panara,yes,no,mono,no,18,no,white,no,yes,768,22,53,/home/ubuntu/Desktop/panara/subject-102.csv,Jazzy James,3.1.3,2.2.5.wav,4.2.5.wav,4.2.3.wav,0,0,0,0,NA,673,5633,673,NA,7522721,1,2,1024,2,48000,-16,experiment,4.2.3.wav,2.2.5.wav,4.2.5.wav,102,even,7975296,7977728,7977228,7976507,7819799,NA,7974296,7978477,743,NA,NA,7974293,7979151,7849257,7974293,7523468,NA,7974296,746,New experiment,NA,0,0,0,yes,1024
undefined,undefined,undefined,undefined,black,no,legacy,0,uniform,undefined,undefined,undefined,77,77,155,77,77,NA,77,77,0,0,0,77,77,0,77,0,NA,77,0,Thu 06 Jun 2019 12:44:04 PM PDT,500,1000,The main experiment item,yes,NA,ABX_v3.osexp,/home/ubuntu/Desktop/panara,no,no,mono,no,18,no,white,no,yes,768,23,53,/home/ubuntu/Desktop/panara/subject-102.csv,Jazzy James,3.1.3,1.1.1.wav,1.2.1.wav,1.2.3.wav,0,1,0,1,NA,1296,5633,1296,NA,7522721,1,2,1024,2,48000,-16,experiment,1.1.1.wav,1.2.3.wav,1.2.1.wav,102,even,7980324,7982921,7982421,7981648,7819799,NA,7979324,7983718,743,NA,NA,7979321,7985014,7849257,7979321,7523468,NA,7979324,746,New experiment,NA,0,0,0,yes,1024
undefined,undefined,undefined,undefined,black,no,legacy,0,uniform,undefined,undefined,undefined,78,78,157,78,78,NA,78,78,0,0,0,78,78,0,78,0,NA,78,0,Thu 06 Jun 2019 12:44:04 PM PDT,500,1000,The main experiment item,yes,NA,ABX_v3.osexp,/home/ubuntu/Desktop/panara,no,no,mono,no,18,no,white,no,yes,768,24,53,/home/ubuntu/Desktop/panara/subject-102.csv,Jazzy James,3.1.3,4.1.3.wav,3.1.3.wav,3.1.5.wav,0,0,0,0,NA,1007,5633,1007,NA,7522721,1,2,1024,2,48000,-16,experiment,4.1.3.wav,3.1.5.wav,3.1.3.wav,102,even,7986192,7988680,7988180,7987430,7819799,NA,7985192,7989462,743,NA,NA,7985189,7990470,7849257,7985189,7523468,NA,7985192,746,New experiment,NA,0,0,0,yes,1024
undefined,undefined,undefined,undefined,black,no,legacy,0,uniform,undefined,undefined,undefined,79,79,159,79,79,NA,79,79,0,0,0,79,79,0,79,0,NA,79,0,Thu 06 Jun 2019 12:44:04 PM PDT,500,1000,The main experiment item,yes,NA,ABX_v3.osexp,/home/ubuntu/Desktop/panara,no,no,mono,no,18,no,white,no,yes,768,25,53,/home/ubuntu/Desktop/panara/subject-102.csv,Jazzy James,3.1.3,4.2.2.wav,4.2.4.wav,2.2.4.wav,0,1,0,1,NA,2585,5633,2585,NA,7522721,1,2,1024,2,48000,-16,experiment,4.2.2.wav,2.2.4.wav,4.2.4.wav,102,even,7991653,7994114,7993614,7992892,7819799,NA,7990653,7994868,743,NA,NA,7990650,7997454,7849257,7990650,7523468,NA,7990653,746,New experiment,NA,0,0,0,yes,1024
undefined,undefined,undefined,undefined,black,no,legacy,0,uniform,undefined,undefined,undefined,80,80,161,80,80,NA,80,80,0,0,0,80,80,0,80,0,NA,80,0,Thu 06 Jun 2019 12:44:04 PM PDT,500,1000,The main experiment item,yes,NA,ABX_v3.osexp,/home/ubuntu/Desktop/panara,no,no,mono,no,18,no,white,no,yes,768,26,53,/home/ubuntu/Desktop/panara/subject-102.csv,Jazzy James,3.1.3,2.2.1.wav,2.1.1.wav,2.1.3.wav,0,0,0,0,NA,668,5633,668,NA,7522721,1,2,1024,2,48000,-16,experiment,2.2.1.wav,2.1.3.wav,2.1.1.wav,102,even,7998622,8001104,8000604,7999851,7819799,NA,7997622,8001857,743,NA,NA,7997619,8002526,7849257,7997619,7523468,NA,7997622,746,New experiment,NA,0,0,0,yes,1024
undefined,undefined,undefined,undefined,black,no,legacy,0,uniform,undefined,undefined,undefined,81,81,163,81,81,NA,81,81,0,0,0,81,81,0,81,0,NA,81,0,Thu 06 Jun 2019 12:44:04 PM PDT,500,1000,The main experiment item,yes,NA,ABX_v3.osexp,/home/ubuntu/Desktop/panara,no,no,mono,no,18,no,white,no,yes,768,27,53,/home/ubuntu/Desktop/panara/subject-102.csv,Jazzy James,3.1.3,3.1.1.wav,3.1.3.wav,3.2.3.wav,0,1,0,1,NA,1299,5633,1299,NA,7522721,1,2,1024,2,48000,-16,experiment,3.1.1.wav,3.2.3.wav,3.1.3.wav,102,even,8003707,8006217,8005717,8004965,7819799,NA,8002707,8006977,743,NA,NA,8002705,8008277,7849257,8002705,7523468,NA,8002707,746,New experiment,NA,0,0,0,yes,1024
undefined,undefined,undefined,undefined,black,no,legacy,0,uniform,undefined,undefined,undefined,82,82,165,82,82,NA,82,82,0,0,0,82,82,0,82,0,NA,82,0,Thu 06 Jun 2019 12:44:04 PM PDT,500,1000,The main experiment item,yes,NA,ABX_v3.osexp,/home/ubuntu/Desktop/panara,yes,no,mono,no,18,no,white,no,yes,768,28,53,/home/ubuntu/Desktop/panara/subject-102.csv,Jazzy James,3.1.3,2.2.3.wav,2.2.1.wav,1.2.1.wav,0,1,0,1,NA,1492,5633,1492,NA,7522721,1,2,1024,2,48000,-16,experiment,1.2.1.wav,2.2.3.wav,2.2.1.wav,102,even,8009428,8011898,8011398,8010644,7819799,NA,8008428,8012672,743,NA,NA,8008425,8014165,7849257,8008425,7523468,NA,8008428,746,New experiment,NA,0,0,0,yes,1024
undefined,undefined,undefined,undefined,black,no,legacy,0,uniform,undefined,undefined,undefined,83,83,167,83,83,NA,83,83,0,0,0,83,83,0,83,0,NA,83,0,Thu 06 Jun 2019 12:44:04 PM PDT,500,1000,The main experiment item,yes,NA,ABX_v3.osexp,/home/ubuntu/Desktop/panara,no,no,mono,no,18,no,white,no,yes,768,29,53,/home/ubuntu/Desktop/panara/subject-102.csv,Jazzy James,3.1.3,1.1.3.wav,1.1.5.wav,2.1.5.wav,0,1,0,1,NA,740,5633,740,NA,7522721,1,2,1024,2,48000,-16,experiment,1.1.3.wav,2.1.5.wav,1.1.5.wav,102,even,8015322,8017884,8017384,8016611,7819799,NA,8014321,8018632,743,NA,NA,8014319,8019372,7849257,8014319,7523468,NA,8014322,746,New experiment,NA,0,0,0,yes,1024
undefined,undefined,undefined,undefined,black,no,legacy,0,uniform,undefined,undefined,undefined,84,84,169,84,84,NA,84,84,0,0,0,84,84,0,84,0,NA,84,0,Thu 06 Jun 2019 12:44:04 PM PDT,500,1000,The main experiment item,yes,NA,ABX_v3.osexp,/home/ubuntu/Desktop/panara,yes,no,mono,no,18,no,white,no,yes,768,30,53,/home/ubuntu/Desktop/panara/subject-102.csv,Jazzy James,3.1.3,2.1.5.wav,2.1.3.wav,2.2.3.wav,0,0,0,0,NA,882,5633,882,NA,7522721,1,2,1024,2,48000,-16,experiment,2.2.3.wav,2.1.5.wav,2.1.3.wav,102,even,8020552,8023067,8022567,8021817,7819799,NA,8019552,8023794,743,NA,NA,8019550,8024677,7849257,8019550,7523468,NA,8019552,746,New experiment,NA,0,0,0,yes,1024
undefined,undefined,undefined,undefined,black,no,legacy,0,uniform,undefined,undefined,undefined,85,85,171,85,85,NA,85,85,0,0,0,85,85,0,85,0,NA,85,0,Thu 06 Jun 2019 12:44:04 PM PDT,500,1000,The main experiment item,yes,NA,ABX_v3.osexp,/home/ubuntu/Desktop/panara,yes,no,mono,no,18,no,white,no,yes,768,31,53,/home/ubuntu/Desktop/panara/subject-102.csv,Jazzy James,3.1.3,3.1.4.wav,3.1.2.wav,3.2.2.wav,0,1,0,1,NA,1870,5633,1870,NA,7522721,1,2,1024,2,48000,-16,experiment,3.2.2.wav,3.1.4.wav,3.1.2.wav,102,even,8025863,8028415,8027915,8027135,7819799,NA,8024863,8029197,743,NA,NA,8024860,8031068,7849257,8024860,7523468,NA,8024863,746,New experiment,NA,0,0,0,yes,1024
undefined,undefined,undefined,undefined,black,no,legacy,0,uniform,undefined,undefined,undefined,86,86,173,86,86,NA,86,86,0,0,0,86,86,0,86,0,NA,86,0,Thu 06 Jun 2019 12:44:04 PM PDT,500,1000,The main experiment item,yes,NA,ABX_v3.osexp,/home/ubuntu/Desktop/panara,no,no,mono,no,18,no,white,no,yes,768,32,53,/home/ubuntu/Desktop/panara/subject-102.csv,Jazzy James,3.1.3,3.1.3.wav,4.1.3.wav,4.1.5.wav,0,1,0,1,NA,1274,5633,1274,NA,7522721,1,2,1024,2,48000,-16,experiment,3.1.3.wav,4.1.5.wav,4.1.3.wav,102,even,8032229,8034701,8034201,8033478,7819799,NA,8031228,8035425,743,NA,NA,8031226,8036700,7849257,8031226,7523468,NA,8031228,746,New experiment,NA,0,0,0,yes,1024
undefined,undefined,undefined,undefined,black,no,legacy,0,uniform,undefined,undefined,undefined,87,87,175,87,87,NA,87,87,0,0,0,87,87,0,87,0,NA,87,0,Thu 06 Jun 2019 12:44:04 PM PDT,500,1000,The main experiment item,yes,NA,ABX_v3.osexp,/home/ubuntu/Desktop/panara,yes,no,mono,no,18,no,white,no,yes,768,33,53,/home/ubuntu/Desktop/panara/subject-102.csv,Jazzy James,3.1.3,1.1.4.wav,3.1.4.wav,3.1.2.wav,0,0,0,0,NA,980,5633,980,NA,7522721,1,2,1024,2,48000,-16,experiment,3.1.2.wav,1.1.4.wav,3.1.4.wav,102,even,8037874,8040433,8039933,8039153,7819799,NA,8036874,8041214,743,NA,NA,8036872,8042195,7849257,8036872,7523468,NA,8036874,746,New experiment,NA,0,0,0,yes,1024
undefined,undefined,undefined,undefined,black,no,legacy,0,uniform,undefined,undefined,undefined,88,88,177,88,88,NA,88,88,0,0,0,88,88,0,88,0,NA,88,0,Thu 06 Jun 2019 12:44:04 PM PDT,500,1000,The main experiment item,yes,NA,ABX_v3.osexp,/home/ubuntu/Desktop/panara,no,no,mono,no,18,no,white,no,yes,768,34,53,/home/ubuntu/Desktop/panara/subject-102.csv,Jazzy James,3.1.3,4.1.1.wav,3.1.1.wav,3.1.3.wav,0,0,0,0,NA,779,5633,779,NA,7522721,1,2,1024,2,48000,-16,experiment,4.1.1.wav,3.1.3.wav,3.1.1.wav,102,even,8043355,8045828,8045328,8044577,7819799,NA,8042354,8046583,743,NA,NA,8042352,8047362,7849257,8042352,7523468,NA,8042355,746,New experiment,NA,0,0,0,yes,1024
undefined,undefined,undefined,undefined,black,no,legacy,0,uniform,undefined,undefined,undefined,89,89,179,89,89,NA,89,89,0,0,0,89,89,0,89,0,NA,89,0,Thu 06 Jun 2019 12:44:04 PM PDT,500,1000,The main experiment item,yes,NA,ABX_v3.osexp,/home/ubuntu/Desktop/panara,no,no,mono,no,18,no,white,no,yes,768,35,53,/home/ubuntu/Desktop/panara/subject-102.csv,Jazzy James,3.1.3,2.2.3.wav,1.2.3.wav,1.2.5.wav,0,1,0,1,NA,2720,5633,2720,NA,7522721,1,2,1024,2,48000,-16,experiment,2.2.3.wav,1.2.5.wav,1.2.3.wav,102,even,8048526,8051034,8050534,8049761,7819799,NA,8047525,8051817,743,NA,NA,8047522,8054538,7849257,8047522,7523468,NA,8047526,746,New experiment,NA,0,0,0,yes,1024
undefined,undefined,undefined,undefined,black,no,legacy,0,uniform,undefined,undefined,undefined,90,90,181,90,90,NA,90,90,0,0,0,90,90,0,90,0,NA,90,0,Thu 06 Jun 2019 12:44:04 PM PDT,500,1000,The main experiment item,yes,NA,ABX_v3.osexp,/home/ubuntu/Desktop/panara,no,no,mono,no,18,no,white,no,yes,768,36,53,/home/ubuntu/Desktop/panara/subject-102.csv,Jazzy James,3.1.3,2.2.2.wav,4.2.2.wav,4.2.4.wav,0,0,0,0,NA,663,5633,663,NA,7522721,1,2,1024,2,48000,-16,experiment,2.2.2.wav,4.2.4.wav,4.2.2.wav,102,even,8055707,8058159,8057659,8056935,7819799,NA,8054707,8058907,743,NA,NA,8054704,8059571,7849257,8054704,7523468,NA,8054707,746,New experiment,NA,0,0,0,yes,1024
undefined,undefined,undefined,undefined,black,no,legacy,0,uniform,undefined,undefined,undefined,91,91,183,91,91,NA,91,91,0,0,0,91,91,0,91,0,NA,91,0,Thu 06 Jun 2019 12:44:04 PM PDT,500,1000,The main experiment item,yes,NA,ABX_v3.osexp,/home/ubuntu/Desktop/panara,yes,no,mono,no,18,no,white,no,yes,768,37,53,/home/ubuntu/Desktop/panara/subject-102.csv,Jazzy James,3.1.3,3.1.5.wav,3.1.3.wav,1.1.3.wav,0,1,0,1,NA,736,5633,736,NA,7522721,1,2,1024,2,48000,-16,experiment,1.1.3.wav,3.1.5.wav,3.1.3.wav,102,even,8060757,8063288,8062788,8062041,7819799,NA,8059757,8064090,743,NA,NA,8059754,8064826,7849257,8059754,7523468,NA,8059757,746,New experiment,NA,0,0,0,yes,1024
undefined,undefined,undefined,undefined,black,no,legacy,0,uniform,undefined,undefined,undefined,92,92,185,92,92,NA,92,92,0,0,0,92,92,0,92,0,NA,92,0,Thu 06 Jun 2019 12:44:04 PM PDT,500,1000,The main experiment item,yes,NA,ABX_v3.osexp,/home/ubuntu/Desktop/panara,yes,no,mono,no,18,no,white,no,yes,768,38,53,/home/ubuntu/Desktop/panara/subject-102.csv,Jazzy James,3.1.3,4.2.3.wav,4.1.3.wav,4.1.1.wav,0,1,0,1,NA,2623,5633,2623,NA,7522721,1,2,1024,2,48000,-16,experiment,4.1.1.wav,4.2.3.wav,4.1.3.wav,102,even,8065989,8068476,8067976,8067255,7819799,NA,8064988,8069194,743,NA,NA,8064985,8071818,7849257,8064985,7523468,NA,8064989,746,New experiment,NA,0,0,0,yes,1024
undefined,undefined,undefined,undefined,black,no,legacy,0,uniform,undefined,undefined,undefined,93,93,187,93,93,NA,93,93,0,0,0,93,93,0,93,0,NA,93,0,Thu 06 Jun 2019 12:44:04 PM PDT,500,1000,The main experiment item,yes,NA,ABX_v3.osexp,/home/ubuntu/Desktop/panara,yes,no,mono,no,18,no,white,no,yes,768,39,53,/home/ubuntu/Desktop/panara/subject-102.csv,Jazzy James,3.1.3,2.2.4.wav,2.2.2.wav,1.2.2.wav,0,1,0,1,NA,541,5633,541,NA,7522721,1,2,1024,2,48000,-16,experiment,1.2.2.wav,2.2.4.wav,2.2.2.wav,102,even,8072984,8075431,8074931,8074209,7819799,NA,8071984,8076212,743,NA,NA,8071982,8076754,7849257,8071982,7523468,NA,8071984,746,New experiment,NA,0,0,0,yes,1024
undefined,undefined,undefined,undefined,black,no,legacy,0,uniform,undefined,undefined,undefined,94,94,189,94,94,NA,94,94,0,0,0,94,94,0,94,0,NA,94,0,Thu 06 Jun 2019 12:44:04 PM PDT,500,1000,The main experiment item,yes,NA,ABX_v3.osexp,/home/ubuntu/Desktop/panara,yes,no,mono,no,18,no,white,no,yes,768,40,53,/home/ubuntu/Desktop/panara/subject-102.csv,Jazzy James,3.1.3,2.1.4.wav,2.1.2.wav,2.2.2.wav,0,0,0,0,NA,492,5633,492,NA,7522721,1,2,1024,2,48000,-16,experiment,2.2.2.wav,2.1.4.wav,2.1.2.wav,102,even,8077867,8080380,8079880,8079129,7819799,NA,8076867,8081133,743,NA,NA,8076864,8081625,7849257,8076864,7523468,NA,8076867,746,New experiment,NA,0,0,0,yes,1024
undefined,undefined,undefined,undefined,black,no,legacy,0,uniform,undefined,undefined,undefined,95,95,191,95,95,NA,95,95,0,0,0,95,95,0,95,0,NA,95,0,Thu 06 Jun 2019 12:44:04 PM PDT,500,1000,The main experiment item,yes,NA,ABX_v3.osexp,/home/ubuntu/Desktop/panara,yes,no,mono,no,18,no,white,no,yes,768,41,53,/home/ubuntu/Desktop/panara/subject-102.csv,Jazzy James,3.1.3,4.1.5.wav,4.1.3.wav,2.1.3.wav,0,1,0,1,NA,2304,5633,2304,NA,7522721,1,2,1024,2,48000,-16,experiment,2.1.3.wav,4.1.5.wav,4.1.3.wav,102,even,8082783,8085378,8084878,8084019,7819799,NA,8081783,8086119,743,NA,NA,8081781,8088424,7849257,8081781,7523468,NA,8081783,746,New experiment,NA,0,0,0,yes,1024
undefined,undefined,undefined,undefined,black,no,legacy,0,uniform,undefined,undefined,undefined,96,96,193,96,96,NA,96,96,0,0,0,96,96,0,96,0,NA,96,0,Thu 06 Jun 2019 12:44:04 PM PDT,500,1000,The main experiment item,yes,NA,ABX_v3.osexp,/home/ubuntu/Desktop/panara,yes,no,mono,no,18,no,white,no,yes,768,42,53,/home/ubuntu/Desktop/panara/subject-102.csv,Jazzy James,3.1.3,1.1.3.wav,1.1.1.wav,2.1.1.wav,0,0,0,0,NA,1049,5633,1049,NA,7522721,1,2,1024,2,48000,-16,experiment,2.1.1.wav,1.1.3.wav,1.1.1.wav,102,even,8089545,8092141,8091641,8090838,7819799,NA,8088544,8092903,743,NA,NA,8088542,8093952,7849257,8088542,7523468,NA,8088545,746,New experiment,NA,0,0,0,yes,1024
undefined,undefined,undefined,undefined,black,no,legacy,0,uniform,undefined,undefined,undefined,97,97,195,97,97,NA,97,97,0,0,0,97,97,0,97,0,NA,97,0,Thu 06 Jun 2019 12:44:04 PM PDT,500,1000,The main experiment item,yes,NA,ABX_v3.osexp,/home/ubuntu/Desktop/panara,no,no,mono,no,18,no,white,no,yes,768,43,53,/home/ubuntu/Desktop/panara/subject-102.csv,Jazzy James,3.1.3,2.2.2.wav,2.2.4.wav,4.2.4.wav,0,1,0,1,NA,2449,5633,2449,NA,7522721,1,2,1024,2,48000,-16,experiment,2.2.2.wav,4.2.4.wav,2.2.4.wav,102,even,8095102,8097532,8097032,8096321,7819799,NA,8094101,8098246,743,NA,NA,8094099,8100696,7849257,8094099,7523468,NA,8094102,746,New experiment,NA,0,0,0,yes,1024
undefined,undefined,undefined,undefined,black,no,legacy,0,uniform,undefined,undefined,undefined,98,98,197,98,98,NA,98,98,0,0,0,98,98,0,98,0,NA,98,0,Thu 06 Jun 2019 12:44:04 PM PDT,500,1000,The main experiment item,yes,NA,ABX_v3.osexp,/home/ubuntu/Desktop/panara,no,no,mono,no,18,no,white,no,yes,768,44,53,/home/ubuntu/Desktop/panara/subject-102.csv,Jazzy James,3.1.3,1.1.2.wav,1.1.4.wav,3.1.4.wav,0,0,0,0,NA,458,5633,458,NA,7522721,1,2,1024,2,48000,-16,experiment,1.1.2.wav,3.1.4.wav,1.1.4.wav,102,even,8101874,8104449,8103949,8103168,7819799,NA,8100873,8105221,743,NA,NA,8100870,8105680,7849257,8100870,7523468,NA,8100874,746,New experiment,NA,0,0,0,yes,1024
undefined,undefined,undefined,undefined,black,no,legacy,0,uniform,undefined,undefined,undefined,99,99,199,99,99,NA,99,99,0,0,0,99,99,0,99,0,NA,99,0,Thu 06 Jun 2019 12:44:04 PM PDT,500,1000,The main experiment item,yes,NA,ABX_v3.osexp,/home/ubuntu/Desktop/panara,no,no,mono,no,18,no,white,no,yes,768,45,53,/home/ubuntu/Desktop/panara/subject-102.csv,Jazzy James,3.1.3,1.2.3.wav,3.2.3.wav,3.2.5.wav,0,0,0,0,NA,1076,5633,1076,NA,7522721,1,2,1024,2,48000,-16,experiment,1.2.3.wav,3.2.5.wav,3.2.3.wav,102,even,8106832,8109398,8108898,8108122,7819799,NA,8105832,8110178,743,NA,NA,8105829,8111254,7849257,8105829,7523468,NA,8105832,746,New experiment,NA,0,0,0,yes,1024
undefined,undefined,undefined,undefined,black,no,legacy,0,uniform,undefined,undefined,undefined,100,100,201,100,100,NA,100,100,0,0,0,100,100,0,100,0,NA,100,0,Thu 06 Jun 2019 12:44:04 PM PDT,500,1000,The main experiment item,yes,NA,ABX_v3.osexp,/home/ubuntu/Desktop/panara,yes,no,mono,no,18,no,white,no,yes,768,46,53,/home/ubuntu/Desktop/panara/subject-102.csv,Jazzy James,3.1.3,2.1.4.wav,2.1.2.wav,4.1.2.wav,0,1,0,1,NA,1859,1115,1859,NA,7522721,1,2,1024,2,48000,-16,experiment,4.1.2.wav,2.1.4.wav,2.1.2.wav,102,even,8113529,8116008,8115508,8114776,8111411,NA,8112528,8116763,743,NA,NA,8111408,8118623,7849257,8111408,7523468,NA,8112529,746,New experiment,NA,0,0,0,yes,1024
undefined,undefined,undefined,undefined,black,no,legacy,0,uniform,undefined,undefined,undefined,101,101,203,101,101,NA,101,101,0,0,0,101,101,0,101,0,NA,101,0,Thu 06 Jun 2019 12:44:04 PM PDT,500,1000,The main experiment item,yes,NA,ABX_v3.osexp,/home/ubuntu/Desktop/panara,yes,no,mono,no,18,no,white,no,yes,768,47,53,/home/ubuntu/Desktop/panara/subject-102.csv,Jazzy James,3.1.3,4.1.3.wav,3.1.3.wav,3.1.1.wav,0,0,0,0,NA,1109,1115,1109,NA,7522721,1,2,1024,2,48000,-16,experiment,3.1.1.wav,4.1.3.wav,3.1.3.wav,102,even,8119779,8122286,8121786,8121035,8111411,NA,8118779,8123016,743,NA,NA,8118777,8124126,7849257,8118777,7523468,NA,8118779,746,New experiment,NA,0,0,0,yes,1024
undefined,undefined,undefined,undefined,black,no,legacy,0,uniform,undefined,undefined,undefined,102,102,205,102,102,NA,102,102,0,0,0,102,102,0,102,0,NA,102,0,Thu 06 Jun 2019 12:44:04 PM PDT,500,1000,The main experiment item,yes,NA,ABX_v3.osexp,/home/ubuntu/Desktop/panara,no,no,mono,no,18,no,white,no,yes,768,48,53,/home/ubuntu/Desktop/panara/subject-102.csv,Jazzy James,3.1.3,2.1.1.wav,4.1.1.wav,4.1.3.wav,0,0,0,0,NA,878,1115,878,NA,7522721,1,2,1024,2,48000,-16,experiment,2.1.1.wav,4.1.3.wav,4.1.1.wav,102,even,8125271,8127755,8127255,8126504,8111411,NA,8124270,8128503,743,NA,NA,8124268,8129381,7849257,8124268,7523468,NA,8124271,746,New experiment,NA,0,0,0,yes,1024
undefined,undefined,undefined,undefined,black,no,legacy,0,uniform,undefined,undefined,undefined,103,103,207,103,103,NA,103,103,0,0,0,103,103,0,103,0,NA,103,0,Thu 06 Jun 2019 12:44:04 PM PDT,500,1000,The main experiment item,yes,NA,ABX_v3.osexp,/home/ubuntu/Desktop/panara,no,no,mono,no,18,no,white,no,yes,768,49,53,/home/ubuntu/Desktop/panara/subject-102.csv,Jazzy James,3.1.3,2.1.3.wav,1.1.3.wav,1.1.5.wav,0,1,0,1,NA,1821,1115,1821,NA,7522721,1,2,1024,2,48000,-16,experiment,2.1.3.wav,1.1.5.wav,1.1.3.wav,102,even,8130538,8133093,8132593,8131777,8111411,NA,8129537,8133880,743,NA,NA,8129535,8135702,7849257,8129535,7523468,NA,8129537,746,New experiment,NA,0,0,0,yes,1024
undefined,undefined,undefined,undefined,black,no,legacy,0,uniform,undefined,undefined,undefined,104,104,209,104,104,NA,104,104,0,0,0,104,104,0,104,0,NA,104,0,Thu 06 Jun 2019 12:44:04 PM PDT,500,1000,The main experiment item,yes,NA,ABX_v3.osexp,/home/ubuntu/Desktop/panara,yes,no,mono,no,18,no,white,no,yes,768,50,53,/home/ubuntu/Desktop/panara/subject-102.csv,Jazzy James,3.1.3,4.2.4.wav,3.2.4.wav,3.2.2.wav,0,1,0,1,NA,1387,1115,1387,NA,7522721,1,2,1024,2,48000,-16,experiment,3.2.2.wav,4.2.4.wav,3.2.4.wav,102,even,8136875,8139365,8138865,8138088,8111411,NA,8135874,8140129,743,NA,NA,8135871,8141516,7849257,8135871,7523468,NA,8135875,746,New experiment,NA,0,0,0,yes,1024
undefined,undefined,undefined,undefined,black,no,legacy,0,uniform,undefined,undefined,undefined,105,105,211,105,105,NA,105,105,0,0,0,105,105,0,105,0,NA,105,0,Thu 06 Jun 2019 12:44:04 PM PDT,500,1000,The main experiment item,yes,NA,ABX_v3.osexp,/home/ubuntu/Desktop/panara,yes,no,mono,no,18,no,white,no,yes,768,51,53,/home/ubuntu/Desktop/panara/subject-102.csv,Jazzy James,3.1.3,1.2.5.wav,1.2.3.wav,1.1.3.wav,0,1,0,1,NA,436,1115,436,NA,7522721,1,2,1024,2,48000,-16,experiment,1.1.3.wav,1.2.5.wav,1.2.3.wav,102,even,8142693,8145248,8144748,8143976,8111411,NA,8141693,8146039,743,NA,NA,8141690,8146476,7849257,8141690,7523468,NA,8141693,746,New experiment,NA,0,0,0,yes,1024
undefined,undefined,undefined,undefined,black,no,legacy,0,uniform,undefined,undefined,undefined,106,106,213,106,106,NA,106,106,0,0,0,106,106,0,106,0,NA,106,0,Thu 06 Jun 2019 12:44:04 PM PDT,500,1000,The main experiment item,yes,NA,ABX_v3.osexp,/home/ubuntu/Desktop/panara,yes,no,mono,no,18,no,white,no,yes,768,52,53,/home/ubuntu/Desktop/panara/subject-102.csv,Jazzy James,3.1.3,2.2.4.wav,2.2.2.wav,4.2.2.wav,0,0,0,0,NA,494,1115,494,NA,7522721,1,2,1024,2,48000,-16,experiment,4.2.2.wav,2.2.4.wav,2.2.2.wav,102,even,8147639,8150091,8149591,8148884,8111411,NA,8146638,8150813,743,NA,NA,8146636,8151308,7849257,8146636,7523468,NA,8146639,746,New experiment,NA,0,0,0,yes,1024
undefined,undefined,undefined,undefined,black,no,legacy,0,uniform,undefined,undefined,undefined,107,107,215,107,107,NA,107,107,0,0,0,107,107,0,107,0,NA,107,0,Thu 06 Jun 2019 12:44:04 PM PDT,500,1000,The main experiment item,yes,NA,ABX_v3.osexp,/home/ubuntu/Desktop/panara,yes,no,mono,no,18,no,white,no,yes,768,53,53,/home/ubuntu/Desktop/panara/subject-102.csv,Jazzy James,3.1.3,1.2.4.wav,2.2.4.wav,2.2.2.wav,0,1,0,1,NA,3459,1115,3459,NA,7522721,1,2,1024,2,48000,-16,experiment,2.2.2.wav,1.2.4.wav,2.2.4.wav,102,even,8152471,8154961,8154461,8153728,8111411,NA,8151471,8155704,743,NA,NA,8151468,8159163,7849257,8151468,7523468,NA,8151471,746,New experiment,NA,0,0,0,yes,1024
undefined,undefined,undefined,undefined,black,no,legacy,0,uniform,undefined,undefined,undefined,108,108,217,108,108,NA,108,108,0,0,0,108,108,0,108,0,NA,108,0,Thu 06 Jun 2019 12:44:04 PM PDT,500,1000,The main experiment item,yes,NA,ABX_v3.osexp,/home/ubuntu/Desktop/panara,no,no,mono,no,18,no,white,no,yes,768,54,53,/home/ubuntu/Desktop/panara/subject-102.csv,Jazzy James,3.1.3,2.1.2.wav,2.2.2.wav,2.2.4.wav,0,1,0,1,NA,1486,1115,1486,NA,7522721,1,2,1024,2,48000,-16,experiment,2.1.2.wav,2.2.4.wav,2.2.2.wav,102,even,8160327,8162791,8162291,8161549,8111411,NA,8159326,8163509,743,NA,NA,8159324,8164996,7849257,8159324,7523468,NA,8159327,746,New experiment,NA,0,0,0,yes,1024
undefined,undefined,undefined,undefined,black,no,legacy,0,uniform,undefined,undefined,undefined,109,109,219,109,109,NA,109,109,0,0,0,109,109,0,109,0,NA,109,0,Thu 06 Jun 2019 12:44:04 PM PDT,500,1000,The main experiment item,yes,NA,ABX_v3.osexp,/home/ubuntu/Desktop/panara,no,no,mono,no,18,no,white,no,yes,768,55,53,/home/ubuntu/Desktop/panara/subject-102.csv,Jazzy James,3.1.3,4.1.3.wav,4.1.5.wav,3.1.5.wav,0,0,0,0,NA,1435,1115,1435,NA,7522721,1,2,1024,2,48000,-16,experiment,4.1.3.wav,3.1.5.wav,4.1.5.wav,102,even,8166154,8168593,8168093,8167369,8111411,NA,8165154,8169352,743,NA,NA,8165151,8170788,7849257,8165151,7523468,NA,8165154,746,New experiment,NA,0,0,0,yes,1024
undefined,undefined,undefined,undefined,black,no,legacy,0,uniform,undefined,undefined,undefined,110,110,221,110,110,NA,110,110,0,0,0,110,110,0,110,0,NA,110,0,Thu 06 Jun 2019 12:44:04 PM PDT,500,1000,The main experiment item,yes,NA,ABX_v3.osexp,/home/ubuntu/Desktop/panara,yes,no,mono,no,18,no,white,no,yes,768,56,53,/home/ubuntu/Desktop/panara/subject-102.csv,Jazzy James,3.1.3,4.1.5.wav,3.1.5.wav,3.1.3.wav,0,0,0,0,NA,1431,1115,1431,NA,7522721,1,2,1024,2,48000,-16,experiment,3.1.3.wav,4.1.5.wav,3.1.5.wav,102,even,8171957,8174494,8173994,8173218,8111411,NA,8170956,8175236,743,NA,NA,8170953,8176667,7849257,8170953,7523468,NA,8170957,746,New experiment,NA,0,0,0,yes,1024
undefined,undefined,undefined,undefined,black,no,legacy,0,uniform,undefined,undefined,undefined,111,111,223,111,111,NA,111,111,0,0,0,111,111,0,111,0,NA,111,0,Thu 06 Jun 2019 12:44:04 PM PDT,500,1000,The main experiment item,yes,NA,ABX_v3.osexp,/home/ubuntu/Desktop/panara,yes,no,mono,no,18,no,white,no,yes,768,57,53,/home/ubuntu/Desktop/panara/subject-102.csv,Jazzy James,3.1.3,3.2.4.wav,3.2.2.wav,1.2.2.wav,0,1,0,1,NA,1803,1115,1803,NA,7522721,1,2,1024,2,48000,-16,experiment,1.2.2.wav,3.2.4.wav,3.2.2.wav,102,even,8177834,8180344,8179843,8179072,8111411,NA,8176834,8181151,743,NA,NA,8176832,8182955,7849257,8176832,7523468,NA,8176834,746,New experiment,NA,0,0,0,yes,1024
undefined,undefined,undefined,undefined,black,no,legacy,0,uniform,undefined,undefined,undefined,112,112,225,112,112,NA,112,112,0,0,0,112,112,0,112,0,NA,112,0,Thu 06 Jun 2019 12:44:04 PM PDT,500,1000,The main experiment item,yes,NA,ABX_v3.osexp,/home/ubuntu/Desktop/panara,yes,no,mono,no,18,no,white,no,yes,768,58,53,/home/ubuntu/Desktop/panara/subject-102.csv,Jazzy James,3.1.3,2.2.4.wav,2.1.4.wav,2.1.2.wav,0,0,0,0,NA,2683,1115,2683,NA,7522721,1,2,1024,2,48000,-16,experiment,2.1.2.wav,2.2.4.wav,2.1.4.wav,102,even,8184125,8186592,8186092,8185361,8111411,NA,8183124,8187350,743,NA,NA,8183121,8190033,7849257,8183121,7523468,NA,8183124,746,New experiment,NA,0,0,0,yes,1024
undefined,undefined,undefined,undefined,black,no,legacy,0,uniform,undefined,undefined,undefined,113,113,227,113,113,NA,113,113,0,0,0,113,113,0,113,0,NA,113,0,Thu 06 Jun 2019 12:44:04 PM PDT,500,1000,The main experiment item,yes,NA,ABX_v3.osexp,/home/ubuntu/Desktop/panara,no,no,mono,no,18,no,white,no,yes,768,59,53,/home/ubuntu/Desktop/panara/subject-102.csv,Jazzy James,3.1.3,1.2.3.wav,1.2.5.wav,2.2.5.wav,0,1,0,1,NA,1292,1115,1292,NA,7522721,1,2,1024,2,48000,-16,experiment,1.2.3.wav,2.2.5.wav,1.2.5.wav,102,even,8191196,8193764,8193264,8192480,8111411,NA,8190195,8194517,743,NA,NA,8190192,8195810,7849257,8190192,7523468,NA,8190196,746,New experiment,NA,0,0,0,yes,1024
undefined,undefined,undefined,undefined,black,no,legacy,0,uniform,undefined,undefined,undefined,114,114,229,114,114,NA,114,114,0,0,0,114,114,0,114,0,NA,114,0,Thu 06 Jun 2019 12:44:04 PM PDT,500,1000,The main experiment item,yes,NA,ABX_v3.osexp,/home/ubuntu/Desktop/panara,no,no,mono,no,18,no,white,no,yes,768,60,53,/home/ubuntu/Desktop/panara/subject-102.csv,Jazzy James,3.1.3,2.2.3.wav,2.2.5.wav,1.2.5.wav,0,0,0,0,NA,1736,1115,1736,NA,7522721,1,2,1024,2,48000,-16,experiment,2.2.3.wav,1.2.5.wav,2.2.5.wav,102,even,8196939,8199376,8198876,8198152,8111411,NA,8195939,8200153,743,NA,NA,8195936,8201890,7849257,8195936,7523468,NA,8195939,746,New experiment,NA,0,0,0,yes,1024
undefined,undefined,undefined,undefined,black,no,legacy,0,uniform,undefined,undefined,undefined,115,115,231,115,115,NA,115,115,0,0,0,115,115,0,115,0,NA,115,0,Thu 06 Jun 2019 12:44:04 PM PDT,500,1000,The main experiment item,yes,NA,ABX_v3.osexp,/home/ubuntu/Desktop/panara,no,no,mono,no,18,no,white,no,yes,768,61,53,/home/ubuntu/Desktop/panara/subject-102.csv,Jazzy James,3.1.3,4.2.2.wav,4.2.4.wav,4.1.4.wav,0,1,0,1,NA,1922,1115,1922,NA,7522721,1,2,1024,2,48000,-16,experiment,4.2.2.wav,4.1.4.wav,4.2.4.wav,102,even,8203055,8205510,8205010,8204303,8111411,NA,8202054,8206237,743,NA,NA,8202052,8208160,7849257,8202052,7523468,NA,8202055,746,New experiment,NA,0,0,0,yes,1024
undefined,undefined,undefined,undefined,black,no,legacy,0,uniform,undefined,undefined,undefined,116,116,233,116,116,NA,116,116,0,0,0,116,116,0,116,0,NA,116,0,Thu 06 Jun 2019 12:44:04 PM PDT,500,1000,The main experiment item,yes,NA,ABX_v3.osexp,/home/ubuntu/Desktop/panara,no,no,mono,no,18,no,white,no,yes,768,62,53,/home/ubuntu/Desktop/panara/subject-102.csv,Jazzy James,3.1.3,2.1.1.wav,2.2.1.wav,2.2.3.wav,0,0,0,0,NA,948,1115,948,NA,7522721,1,2,1024,2,48000,-16,experiment,2.1.1.wav,2.2.3.wav,2.2.1.wav,102,even,8209321,8211760,8211260,8210556,8111411,NA,8208320,8212483,743,NA,NA,8208318,8213432,7849257,8208318,7523468,NA,8208321,746,New experiment,NA,0,0,0,yes,1024
undefined,undefined,undefined,undefined,black,no,legacy,0,uniform,undefined,undefined,undefined,117,117,235,117,117,NA,117,117,0,0,0,117,117,0,117,0,NA,117,0,Thu 06 Jun 2019 12:44:04 PM PDT,500,1000,The main experiment item,yes,NA,ABX_v3.osexp,/home/ubuntu/Desktop/panara,yes,no,mono,no,18,no,white,no,yes,768,63,53,/home/ubuntu/Desktop/panara/subject-102.csv,Jazzy James,3.1.3,3.1.4.wav,4.1.4.wav,4.1.2.wav,0,0,0,0,NA,913,1115,913,NA,7522721,1,2,1024,2,48000,-16,experiment,4.1.2.wav,3.1.4.wav,4.1.4.wav,102,even,8214584,8217085,8216585,8215859,8111411,NA,8213584,8217799,743,NA,NA,8213582,8218712,7849257,8213582,7523468,NA,8213584,746,New experiment,NA,0,0,0,yes,1024
undefined,undefined,undefined,undefined,black,no,legacy,0,uniform,undefined,undefined,undefined,118,118,237,118,118,NA,118,118,0,0,0,118,118,0,118,0,NA,118,0,Thu 06 Jun 2019 12:44:04 PM PDT,500,1000,The main experiment item,yes,NA,ABX_v3.osexp,/home/ubuntu/Desktop/panara,yes,no,mono,no,18,no,white,no,yes,768,64,53,/home/ubuntu/Desktop/panara/subject-102.csv,Jazzy James,3.1.3,1.1.5.wav,3.1.5.wav,3.1.3.wav,0,0,0,0,NA,1070,1115,1070,NA,7522721,1,2,1024,2,48000,-16,experiment,3.1.3.wav,1.1.5.wav,3.1.5.wav,102,even,8219888,8222457,8221957,8221171,8111411,NA,8218888,8223200,743,NA,NA,8218885,8224271,7849257,8218885,7523468,NA,8218888,746,New experiment,NA,0,0,0,yes,1024
undefined,undefined,undefined,undefined,black,no,legacy,0,uniform,undefined,undefined,undefined,119,119,239,119,119,NA,119,119,0,0,0,119,119,0,119,0,NA,119,0,Thu 06 Jun 2019 12:44:04 PM PDT,500,1000,The main experiment item,yes,NA,ABX_v3.osexp,/home/ubuntu/Desktop/panara,yes,no,mono,no,18,no,white,no,yes,768,65,53,/home/ubuntu/Desktop/panara/subject-102.csv,Jazzy James,3.1.3,2.2.5.wav,2.2.3.wav,4.2.3.wav,0,0,0,0,NA,1390,1115,1390,NA,7522721,1,2,1024,2,48000,-16,experiment,4.2.3.wav,2.2.5.wav,2.2.3.wav,102,even,8225433,8227907,8227407,8226675,8111411,NA,8224433,8228656,743,NA,NA,8224430,8230047,7849257,8224430,7523468,NA,8224433,746,New experiment,NA,0,0,0,yes,1024
undefined,undefined,undefined,undefined,black,no,legacy,0,uniform,undefined,undefined,undefined,120,120,241,120,120,NA,120,120,0,0,0,120,120,0,120,0,NA,120,0,Thu 06 Jun 2019 12:44:04 PM PDT,500,1000,The main experiment item,yes,NA,ABX_v3.osexp,/home/ubuntu/Desktop/panara,no,no,mono,no,18,no,white,no,yes,768,66,53,/home/ubuntu/Desktop/panara/subject-102.csv,Jazzy James,3.1.3,2.2.3.wav,2.2.5.wav,2.1.5.wav,0,0,0,0,NA,786,1115,786,NA,7522721,1,2,1024,2,48000,-16,experiment,2.2.3.wav,2.1.5.wav,2.2.5.wav,102,even,8231203,8233676,8233176,8232453,8111411,NA,8230203,8234411,743,NA,NA,8230200,8235198,7849257,8230200,7523468,NA,8230203,746,New experiment,NA,0,0,0,yes,1024
undefined,undefined,undefined,undefined,black,no,legacy,0,uniform,undefined,undefined,undefined,121,121,243,121,121,NA,121,121,0,0,0,121,121,0,121,0,NA,121,0,Thu 06 Jun 2019 12:44:04 PM PDT,500,1000,The main experiment item,yes,NA,ABX_v3.osexp,/home/ubuntu/Desktop/panara,yes,no,mono,no,18,no,white,no,yes,768,67,53,/home/ubuntu/Desktop/panara/subject-102.csv,Jazzy James,3.1.3,3.2.3.wav,3.2.1.wav,1.2.1.wav,0,0,0,0,NA,849,1115,849,NA,7522721,1,2,1024,2,48000,-16,experiment,1.2.1.wav,3.2.3.wav,3.2.1.wav,102,even,8236334,8238818,8238318,8237562,8111411,NA,8235333,8239596,743,NA,NA,8235331,8240446,7849257,8235331,7523468,NA,8235334,746,New experiment,NA,0,0,0,yes,1024
undefined,undefined,undefined,undefined,black,no,legacy,0,uniform,undefined,undefined,undefined,122,122,245,122,122,NA,122,122,0,0,0,122,122,0,122,0,NA,122,0,Thu 06 Jun 2019 12:44:04 PM PDT,500,1000,The main experiment item,yes,NA,ABX_v3.osexp,/home/ubuntu/Desktop/panara,yes,no,mono,no,18,no,white,no,yes,768,68,53,/home/ubuntu/Desktop/panara/subject-102.csv,Jazzy James,3.1.3,1.2.4.wav,1.2.2.wav,1.1.2.wav,0,0,0,0,NA,1265,1115,1265,NA,7522721,1,2,1024,2,48000,-16,experiment,1.1.2.wav,1.2.4.wav,1.2.2.wav,102,even,8241619,8244155,8243655,8242865,8111411,NA,8240619,8244972,743,NA,NA,8240616,8246237,7849257,8240616,7523468,NA,8240619,746,New experiment,NA,0,0,0,yes,1024
undefined,undefined,undefined,undefined,black,no,legacy,0,uniform,undefined,undefined,undefined,123,123,247,123,123,NA,123,123,0,0,0,123,123,0,123,0,NA,123,0,Thu 06 Jun 2019 12:44:04 PM PDT,500,1000,The main experiment item,yes,NA,ABX_v3.osexp,/home/ubuntu/Desktop/panara,yes,no,mono,no,18,no,white,no,yes,768,69,53,/home/ubuntu/Desktop/panara/subject-102.csv,Jazzy James,3.1.3,2.2.3.wav,2.1.3.wav,2.1.1.wav,0,0,0,0,NA,1097,1115,1097,NA,7522721,1,2,1024,2,48000,-16,experiment,2.1.1.wav,2.2.3.wav,2.1.3.wav,102,even,8247402,8249849,8249349,8248604,8111411,NA,8246402,8250628,743,NA,NA,8246399,8251726,7849257,8246399,7523468,NA,8246402,746,New experiment,NA,0,0,0,yes,1024
undefined,undefined,undefined,undefined,black,no,legacy,0,uniform,undefined,undefined,undefined,124,124,249,124,124,NA,124,124,0,0,0,124,124,0,124,0,NA,124,0,Thu 06 Jun 2019 12:44:04 PM PDT,500,1000,The main experiment item,yes,NA,ABX_v3.osexp,/home/ubuntu/Desktop/panara,yes,no,mono,no,18,no,white,no,yes,768,70,53,/home/ubuntu/Desktop/panara/subject-102.csv,Jazzy James,3.1.3,3.1.3.wav,3.1.1.wav,1.1.1.wav,0,1,0,1,NA,1484,1115,1484,NA,7522721,1,2,1024,2,48000,-16,experiment,1.1.1.wav,3.1.3.wav,3.1.1.wav,102,even,8252892,8255410,8254910,8254129,8111411,NA,8251891,8256209,743,NA,NA,8251889,8257694,7849257,8251889,7523468,NA,8251892,746,New experiment,NA,0,0,0,yes,1024
undefined,undefined,undefined,undefined,black,no,legacy,0,uniform,undefined,undefined,undefined,125,125,251,125,125,NA,125,125,0,0,0,125,125,0,125,0,NA,125,0,Thu 06 Jun 2019 12:44:04 PM PDT,500,1000,The main experiment item,yes,NA,ABX_v3.osexp,/home/ubuntu/Desktop/panara,yes,no,mono,no,18,no,white,no,yes,768,71,53,/home/ubuntu/Desktop/panara/subject-102.csv,Jazzy James,3.1.3,2.1.3.wav,2.2.3.wav,2.2.1.wav,0,0,0,0,NA,904,1115,904,NA,7522721,1,2,1024,2,48000,-16,experiment,2.2.1.wav,2.1.3.wav,2.2.3.wav,102,even,8258859,8261378,8260878,8260124,8111411,NA,8257858,8262099,743,NA,NA,8257856,8263004,7849257,8257856,7523468,NA,8257859,746,New experiment,NA,0,0,0,yes,1024
undefined,undefined,undefined,undefined,black,no,legacy,0,uniform,undefined,undefined,undefined,126,126,253,126,126,NA,126,126,0,0,0,126,126,0,126,0,NA,126,0,Thu 06 Jun 2019 12:44:04 PM PDT,500,1000,The main experiment item,yes,NA,ABX_v3.osexp,/home/ubuntu/Desktop/panara,yes,no,mono,no,18,no,white,no,yes,768,72,53,/home/ubuntu/Desktop/panara/subject-102.csv,Jazzy James,3.1.3,1.2.3.wav,1.2.1.wav,2.2.1.wav,0,1,0,1,NA,692,1115,692,NA,7522721,1,2,1024,2,48000,-16,experiment,2.2.1.wav,1.2.3.wav,1.2.1.wav,102,even,8264199,8266741,8266241,8265474,8111411,NA,8263198,8267455,743,NA,NA,8263196,8268148,7849257,8263196,7523468,NA,8263199,746,New experiment,NA,0,0,0,yes,1024
undefined,undefined,undefined,undefined,black,no,legacy,0,uniform,undefined,undefined,undefined,127,127,255,127,127,NA,127,127,0,0,0,127,127,0,127,0,NA,127,0,Thu 06 Jun 2019 12:44:04 PM PDT,500,1000,The main experiment item,yes,NA,ABX_v3.osexp,/home/ubuntu/Desktop/panara,yes,no,mono,no,18,no,white,no,yes,768,73,53,/home/ubuntu/Desktop/panara/subject-102.csv,Jazzy James,3.1.3,1.1.5.wav,1.2.5.wav,1.2.3.wav,0,0,0,0,NA,895,1115,895,NA,7522721,1,2,1024,2,48000,-16,experiment,1.2.3.wav,1.1.5.wav,1.2.5.wav,102,even,8269301,8271860,8271360,8270571,8111411,NA,8268300,8272660,743,NA,NA,8268298,8273555,7849257,8268298,7523468,NA,8268301,746,New experiment,NA,0,0,0,yes,1024
undefined,undefined,undefined,undefined,black,no,legacy,0,uniform,undefined,undefined,undefined,128,128,257,128,128,NA,128,128,0,0,0,128,128,0,128,0,NA,128,0,Thu 06 Jun 2019 12:44:04 PM PDT,500,1000,The main experiment item,yes,NA,ABX_v3.osexp,/home/ubuntu/Desktop/panara,yes,no,mono,no,18,no,white,no,yes,768,74,53,/home/ubuntu/Desktop/panara/subject-102.csv,Jazzy James,3.1.3,4.2.3.wav,4.2.1.wav,3.2.1.wav,0,0,0,0,NA,1484,1115,1484,NA,7522721,1,2,1024,2,48000,-16,experiment,3.2.1.wav,4.2.3.wav,4.2.1.wav,102,even,8274687,8277194,8276694,8275947,8111411,NA,8273686,8277958,743,NA,NA,8273684,8279443,7849257,8273684,7523468,NA,8273687,746,New experiment,NA,0,0,0,yes,1024
undefined,undefined,undefined,undefined,black,no,legacy,0,uniform,undefined,undefined,undefined,129,129,259,129,129,NA,129,129,0,0,0,129,129,0,129,0,NA,129,0,Thu 06 Jun 2019 12:44:04 PM PDT,500,1000,The main experiment item,yes,NA,ABX_v3.osexp,/home/ubuntu/Desktop/panara,yes,no,mono,no,18,no,white,no,yes,768,75,53,/home/ubuntu/Desktop/panara/subject-102.csv,Jazzy James,3.1.3,3.2.5.wav,1.2.5.wav,1.2.3.wav,0,0,0,0,NA,814,1115,814,NA,7522721,1,2,1024,2,48000,-16,experiment,1.2.3.wav,3.2.5.wav,1.2.5.wav,102,even,8280606,8283169,8282669,8281901,8111411,NA,8279605,8283941,743,NA,NA,8279603,8284756,7849257,8279603,7523468,NA,8279606,746,New experiment,NA,0,0,0,yes,1024
undefined,undefined,undefined,undefined,black,no,legacy,0,uniform,undefined,undefined,undefined,130,130,261,130,130,NA,130,130,0,0,0,130,130,0,130,0,NA,130,0,Thu 06 Jun 2019 12:44:04 PM PDT,500,1000,The main experiment item,yes,NA,ABX_v3.osexp,/home/ubuntu/Desktop/panara,no,no,mono,no,18,no,white,no,yes,768,76,53,/home/ubuntu/Desktop/panara/subject-102.csv,Jazzy James,3.1.3,1.1.1.wav,1.1.3.wav,1.2.3.wav,0,1,0,1,NA,1097,1115,1097,NA,7522721,1,2,1024,2,48000,-16,experiment,1.1.1.wav,1.2.3.wav,1.1.3.wav,102,even,8285922,8288500,8288000,8287216,8111411,NA,8284922,8289272,743,NA,NA,8284919,8290370,7849257,8284919,7523468,NA,8284922,746,New experiment,NA,0,0,0,yes,1024
undefined,undefined,undefined,undefined,black,no,legacy,0,uniform,undefined,undefined,undefined,131,131,263,131,131,NA,131,131,0,0,0,131,131,0,131,0,NA,131,0,Thu 06 Jun 2019 12:44:04 PM PDT,500,1000,The main experiment item,yes,NA,ABX_v3.osexp,/home/ubuntu/Desktop/panara,no,no,mono,no,18,no,white,no,yes,768,77,53,/home/ubuntu/Desktop/panara/subject-102.csv,Jazzy James,3.1.3,4.1.1.wav,4.1.3.wav,2.1.3.wav,0,1,0,1,NA,777,1115,777,NA,7522721,1,2,1024,2,48000,-16,experiment,4.1.1.wav,2.1.3.wav,4.1.3.wav,102,even,8291556,8294019,8293519,8292787,8111411,NA,8290556,8294768,743,NA,NA,8290553,8295546,7849257,8290553,7523468,NA,8290556,746,New experiment,NA,0,0,0,yes,1024
undefined,undefined,undefined,undefined,black,no,legacy,0,uniform,undefined,undefined,undefined,132,132,265,132,132,NA,132,132,0,0,0,132,132,0,132,0,NA,132,0,Thu 06 Jun 2019 12:44:04 PM PDT,500,1000,The main experiment item,yes,NA,ABX_v3.osexp,/home/ubuntu/Desktop/panara,yes,no,mono,no,18,no,white,no,yes,768,78,53,/home/ubuntu/Desktop/panara/subject-102.csv,Jazzy James,3.1.3,4.1.3.wav,4.1.1.wav,3.1.1.wav,0,1,0,1,NA,488,1115,488,NA,7522721,1,2,1024,2,48000,-16,experiment,3.1.1.wav,4.1.3.wav,4.1.1.wav,102,even,8296726,8299206,8298706,8297974,8111411,NA,8295725,8299961,743,NA,NA,8295722,8300449,7849257,8295722,7523468,NA,8295726,746,New experiment,NA,0,0,0,yes,1024
undefined,undefined,undefined,undefined,black,no,legacy,0,uniform,undefined,undefined,undefined,133,133,267,133,133,NA,133,133,0,0,0,133,133,0,133,0,NA,133,0,Thu 06 Jun 2019 12:44:04 PM PDT,500,1000,The main experiment item,yes,NA,ABX_v3.osexp,/home/ubuntu/Desktop/panara,no,no,mono,no,18,no,white,no,yes,768,79,53,/home/ubuntu/Desktop/panara/subject-102.csv,Jazzy James,3.1.3,2.2.2.wav,2.2.4.wav,2.1.4.wav,0,1,0,1,NA,1628,1115,1628,NA,7522721,1,2,1024,2,48000,-16,experiment,2.2.2.wav,2.1.4.wav,2.2.4.wav,102,even,8301618,8304088,8303588,8302851,8111411,NA,8300618,8304852,743,NA,NA,8300616,8306481,7849257,8300616,7523468,NA,8300618,746,New experiment,NA,0,0,0,yes,1024
undefined,undefined,undefined,undefined,black,no,legacy,0,uniform,undefined,undefined,undefined,134,134,269,134,134,NA,134,134,0,0,0,134,134,0,134,0,NA,134,0,Thu 06 Jun 2019 12:44:04 PM PDT,500,1000,The main experiment item,yes,NA,ABX_v3.osexp,/home/ubuntu/Desktop/panara,no,no,mono,no,18,no,white,no,yes,768,80,53,/home/ubuntu/Desktop/panara/subject-102.csv,Jazzy James,3.1.3,3.1.3.wav,3.1.5.wav,3.2.5.wav,0,0,0,0,NA,749,1115,749,NA,7522721,1,2,1024,2,48000,-16,experiment,3.1.3.wav,3.2.5.wav,3.1.5.wav,102,even,8307659,8310189,8309689,8308918,8111411,NA,8306658,8310972,743,NA,NA,8306656,8311722,7849257,8306655,7523468,NA,8306659,746,New experiment,NA,0,0,0,yes,1024
undefined,undefined,undefined,undefined,black,no,legacy,0,uniform,undefined,undefined,undefined,135,135,271,135,135,NA,135,135,0,0,0,135,135,0,135,0,NA,135,0,Thu 06 Jun 2019 12:44:04 PM PDT,500,1000,The main experiment item,yes,NA,ABX_v3.osexp,/home/ubuntu/Desktop/panara,yes,no,mono,no,18,no,white,no,yes,768,81,53,/home/ubuntu/Desktop/panara/subject-102.csv,Jazzy James,3.1.3,3.2.3.wav,3.2.1.wav,4.2.1.wav,0,0,0,0,NA,726,1115,726,NA,7522721,1,2,1024,2,48000,-16,experiment,4.2.1.wav,3.2.3.wav,3.2.1.wav,102,even,8312904,8315398,8314898,8314165,8111411,NA,8311904,8316155,743,NA,NA,8311901,8316881,7849257,8311901,7523468,NA,8311904,746,New experiment,NA,0,0,0,yes,1024
undefined,undefined,undefined,undefined,black,no,legacy,0,uniform,undefined,undefined,undefined,136,136,273,136,136,NA,136,136,0,0,0,136,136,0,136,0,NA,136,0,Thu 06 Jun 2019 12:44:04 PM PDT,500,1000,The main experiment item,yes,NA,ABX_v3.osexp,/home/ubuntu/Desktop/panara,no,no,mono,no,18,no,white,no,yes,768,82,53,/home/ubuntu/Desktop/panara/subject-102.csv,Jazzy James,3.1.3,3.2.3.wav,1.2.3.wav,1.2.5.wav,0,0,0,0,NA,503,1115,503,NA,7522721,1,2,1024,2,48000,-16,experiment,3.2.3.wav,1.2.5.wav,1.2.3.wav,102,even,8318043,8320555,8320055,8319295,8111411,NA,8317042,8321337,743,NA,NA,8317039,8321841,7849257,8317039,7523468,NA,8317043,746,New experiment,NA,0,0,0,yes,1024
undefined,undefined,undefined,undefined,black,no,legacy,0,uniform,undefined,undefined,undefined,137,137,275,137,137,NA,137,137,0,0,0,137,137,0,137,0,NA,137,0,Thu 06 Jun 2019 12:44:04 PM PDT,500,1000,The main experiment item,yes,NA,ABX_v3.osexp,/home/ubuntu/Desktop/panara,no,no,mono,no,18,no,white,no,yes,768,83,53,/home/ubuntu/Desktop/panara/subject-102.csv,Jazzy James,3.1.3,2.1.3.wav,2.1.5.wav,2.2.5.wav,0,0,0,0,NA,381,1115,381,NA,7522721,1,2,1024,2,48000,-16,experiment,2.1.3.wav,2.2.5.wav,2.1.5.wav,102,even,8323060,8325595,8325095,8324316,8111411,NA,8322059,8326339,743,NA,NA,8322057,8326721,7849257,8322057,7523468,NA,8322060,746,New experiment,NA,0,0,0,yes,1024
undefined,undefined,undefined,undefined,black,no,legacy,0,uniform,undefined,undefined,undefined,138,138,277,138,138,NA,138,138,0,0,0,138,138,0,138,0,NA,138,0,Thu 06 Jun 2019 12:44:04 PM PDT,500,1000,The main experiment item,yes,NA,ABX_v3.osexp,/home/ubuntu/Desktop/panara,yes,no,mono,no,18,no,white,no,yes,768,84,53,/home/ubuntu/Desktop/panara/subject-102.csv,Jazzy James,3.1.3,4.1.4.wav,4.1.2.wav,2.1.2.wav,0,1,0,1,NA,656,1115,656,NA,7522721,1,2,1024,2,48000,-16,experiment,2.1.2.wav,4.1.4.wav,4.1.2.wav,102,even,8327900,8330390,8329890,8329159,8111411,NA,8326900,8331151,743,NA,NA,8326897,8331808,7849257,8326897,7523468,NA,8326900,746,New experiment,NA,0,0,0,yes,1024
undefined,undefined,undefined,undefined,black,no,legacy,0,uniform,undefined,undefined,undefined,139,139,279,139,139,NA,139,139,0,0,0,139,139,0,139,0,NA,139,0,Thu 06 Jun 2019 12:44:04 PM PDT,500,1000,The main experiment item,yes,NA,ABX_v3.osexp,/home/ubuntu/Desktop/panara,yes,no,mono,no,18,no,white,no,yes,768,85,53,/home/ubuntu/Desktop/panara/subject-102.csv,Jazzy James,3.1.3,1.1.3.wav,3.1.3.wav,3.1.1.wav,0,0,0,0,NA,568,1115,568,NA,7522721,1,2,1024,2,48000,-16,experiment,3.1.1.wav,1.1.3.wav,3.1.3.wav,102,even,8332963,8335513,8335013,8334270,8111411,NA,8331962,8336271,743,NA,NA,8331959,8336840,7849257,8331959,7523468,NA,8331962,746,New experiment,NA,0,0,0,yes,1024
undefined,undefined,undefined,undefined,black,no,legacy,0,uniform,undefined,undefined,undefined,140,140,281,140,140,NA,140,140,0,0,0,140,140,0,140,0,NA,140,0,Thu 06 Jun 2019 12:44:04 PM PDT,500,1000,The main experiment item,yes,NA,ABX_v3.osexp,/home/ubuntu/Desktop/panara,yes,no,mono,no,18,no,white,no,yes,768,86,53,/home/ubuntu/Desktop/panara/subject-102.csv,Jazzy James,3.1.3,2.2.4.wav,1.2.4.wav,1.2.2.wav,0,0,0,0,NA,1238,1115,1238,NA,7522721,1,2,1024,2,48000,-16,experiment,1.2.2.wav,2.2.4.wav,1.2.4.wav,102,even,8338001,8340468,8339968,8339228,8111411,NA,8337001,8341240,743,NA,NA,8337000,8342479,7849257,8337000,7523468,NA,8337001,746,New experiment,NA,0,0,0,yes,1024
undefined,undefined,undefined,undefined,black,no,legacy,0,uniform,undefined,undefined,undefined,141,141,283,141,141,NA,141,141,0,0,0,141,141,0,141,0,NA,141,0,Thu 06 Jun 2019 12:44:04 PM PDT,500,1000,The main experiment item,yes,NA,ABX_v3.osexp,/home/ubuntu/Desktop/panara,no,no,mono,no,18,no,white,no,yes,768,87,53,/home/ubuntu/Desktop/panara/subject-102.csv,Jazzy James,3.1.3,2.2.1.wav,2.2.3.wav,4.2.3.wav,0,1,0,1,NA,739,1115,739,NA,7522721,1,2,1024,2,48000,-16,experiment,2.2.1.wav,4.2.3.wav,2.2.3.wav,102,even,8343662,8346151,8345651,8344904,8111411,NA,8342662,8346891,743,NA,NA,8342660,8347631,7849257,8342660,7523468,NA,8342662,746,New experiment,NA,0,0,0,yes,1024
undefined,undefined,undefined,undefined,black,no,legacy,0,uniform,undefined,undefined,undefined,142,142,285,142,142,NA,142,142,0,0,0,142,142,0,142,0,NA,142,0,Thu 06 Jun 2019 12:44:04 PM PDT,500,1000,The main experiment item,yes,NA,ABX_v3.osexp,/home/ubuntu/Desktop/panara,no,no,mono,no,18,no,white,no,yes,768,88,53,/home/ubuntu/Desktop/panara/subject-102.csv,Jazzy James,3.1.3,4.1.2.wav,3.1.2.wav,3.1.4.wav,0,0,0,0,NA,1245,1115,1245,NA,7522721,1,2,1024,2,48000,-16,experiment,4.1.2.wav,3.1.4.wav,3.1.2.wav,102,even,8348807,8351317,8350817,8350045,8111411,NA,8347806,8352120,743,NA,NA,8347804,8353366,7849257,8347804,7523468,NA,8347807,746,New experiment,NA,0,0,0,yes,1024
undefined,undefined,undefined,undefined,black,no,legacy,0,uniform,undefined,undefined,undefined,143,143,287,143,143,NA,143,143,0,0,0,143,143,0,143,0,NA,143,0,Thu 06 Jun 2019 12:44:04 PM PDT,500,1000,The main experiment item,yes,NA,ABX_v3.osexp,/home/ubuntu/Desktop/panara,yes,no,mono,no,18,no,white,no,yes,768,89,53,/home/ubuntu/Desktop/panara/subject-102.csv,Jazzy James,3.1.3,3.2.5.wav,3.2.3.wav,4.2.3.wav,0,1,0,1,NA,895,1115,895,NA,7522721,1,2,1024,2,48000,-16,experiment,4.2.3.wav,3.2.5.wav,3.2.3.wav,102,even,8354547,8357081,8356581,8355835,8111411,NA,8353547,8357839,743,NA,NA,8353544,8358734,7849257,8353544,7523468,NA,8353547,746,New experiment,NA,0,0,0,yes,1024
undefined,undefined,undefined,undefined,black,no,legacy,0,uniform,undefined,undefined,undefined,144,144,289,144,144,NA,144,144,0,0,0,144,144,0,144,0,NA,144,0,Thu 06 Jun 2019 12:44:04 PM PDT,500,1000,The main experiment item,yes,NA,ABX_v3.osexp,/home/ubuntu/Desktop/panara,yes,no,mono,no,18,no,white,no,yes,768,90,53,/home/ubuntu/Desktop/panara/subject-102.csv,Jazzy James,3.1.3,3.2.3.wav,4.2.3.wav,4.2.1.wav,0,0,0,0,NA,551,1115,551,NA,7522721,1,2,1024,2,48000,-16,experiment,4.2.1.wav,3.2.3.wav,4.2.3.wav,102,even,8359889,8362409,8361909,8361151,8111411,NA,8358889,8363174,743,NA,NA,8358886,8363726,7849257,8358886,7523468,NA,8358889,746,New experiment,NA,0,0,0,yes,1024
undefined,undefined,undefined,undefined,black,no,legacy,0,uniform,undefined,undefined,undefined,145,145,291,145,145,NA,145,145,0,0,0,145,145,0,145,0,NA,145,0,Thu 06 Jun 2019 12:44:04 PM PDT,500,1000,The main experiment item,yes,NA,ABX_v3.osexp,/home/ubuntu/Desktop/panara,yes,no,mono,no,18,no,white,no,yes,768,91,53,/home/ubuntu/Desktop/panara/subject-102.csv,Jazzy James,3.1.3,4.1.5.wav,4.2.5.wav,4.2.3.wav,0,1,0,1,NA,2080,1115,2080,NA,7522721,1,2,1024,2,48000,-16,experiment,4.2.3.wav,4.1.5.wav,4.2.5.wav,102,even,8364871,8367296,8366796,8366084,8111411,NA,8363871,8368036,743,NA,NA,8363868,8370117,7849257,8363868,7523468,NA,8363871,746,New experiment,NA,0,0,0,yes,1024
undefined,undefined,undefined,undefined,black,no,legacy,0,uniform,undefined,undefined,undefined,146,146,293,146,146,NA,146,146,0,0,0,146,146,0,146,0,NA,146,0,Thu 06 Jun 2019 12:44:04 PM PDT,500,1000,The main experiment item,yes,NA,ABX_v3.osexp,/home/ubuntu/Desktop/panara,no,no,mono,no,18,no,white,no,yes,768,92,53,/home/ubuntu/Desktop/panara/subject-102.csv,Jazzy James,3.1.3,3.2.2.wav,1.2.2.wav,1.2.4.wav,0,1,0,1,NA,1152,1115,1152,NA,7522721,1,2,1024,2,48000,-16,experiment,3.2.2.wav,1.2.4.wav,1.2.2.wav,102,even,8371297,8373861,8373360,8372589,8111411,NA,8370296,8374604,743,NA,NA,8370293,8375757,7849257,8370293,7523468,NA,8370296,746,New experiment,NA,0,0,0,yes,1024
undefined,undefined,undefined,undefined,black,no,legacy,0,uniform,undefined,undefined,undefined,147,147,295,147,147,NA,147,147,0,0,0,147,147,0,147,0,NA,147,0,Thu 06 Jun 2019 12:44:04 PM PDT,500,1000,The main experiment item,yes,NA,ABX_v3.osexp,/home/ubuntu/Desktop/panara,yes,no,mono,no,18,no,white,no,yes,768,93,53,/home/ubuntu/Desktop/panara/subject-102.csv,Jazzy James,3.1.3,3.2.4.wav,1.2.4.wav,1.2.2.wav,0,0,0,0,NA,402,1115,402,NA,7522721,1,2,1024,2,48000,-16,experiment,1.2.2.wav,3.2.4.wav,1.2.4.wav,102,even,8376927,8379438,8378938,8378174,8111411,NA,8375926,8380210,743,NA,NA,8375923,8380613,7849257,8375923,7523468,NA,8375926,746,New experiment,NA,0,0,0,yes,1024
undefined,undefined,undefined,undefined,black,no,legacy,0,uniform,undefined,undefined,undefined,148,148,297,148,148,NA,148,148,0,0,0,148,148,0,148,0,NA,148,0,Thu 06 Jun 2019 12:44:04 PM PDT,500,1000,The main experiment item,yes,NA,ABX_v3.osexp,/home/ubuntu/Desktop/panara,no,no,mono,no,18,no,white,no,yes,768,94,53,/home/ubuntu/Desktop/panara/subject-102.csv,Jazzy James,3.1.3,1.2.1.wav,1.2.3.wav,1.1.3.wav,0,1,0,1,NA,668,1115,668,NA,7522721,1,2,1024,2,48000,-16,experiment,1.2.1.wav,1.1.3.wav,1.2.3.wav,102,even,8381781,8384368,8383868,8383075,8111411,NA,8380781,8385184,743,NA,NA,8380779,8385853,7849257,8380779,7523468,NA,8380781,746,New experiment,NA,0,0,0,yes,1024
