"acc","accuracy","average_response_time","avg_rt","background","bidi","canvas_backend","compensation","coordinates","correct","correct_display_selecting","correct_welcome","count_A","count_B","count_ISI","count_X","count_break","count_determine_break","count_display_listening","count_display_selecting","count_experiment","count_finished","count_getting_started","count_new_inline_script","count_new_logger","count_new_loop","count_new_sequence","count_plain_block","count_setup_breaks","count_wait_nextitem","count_welcome","datetime","delay_ISI","delay_wait_nextitem","description","disable_garbage_collection","empty_column","experiment_file","experiment_path","flip_order","font_bold","font_family","font_italic","font_size","font_underline","foreground","form_clicks","fullscreen","height","live_row","live_row_plain_block","logfile","opensesame_codename","opensesame_version","play1","play2","play3","repeat_cycle","response","response_break","response_display_selecting","response_finished","response_time","response_time_break","response_time_display_selecting","response_time_finished","response_time_welcome","response_welcome","round_decimals","sound_buf_size","sound_channels","sound_freq","sound_sample_size","start","stimA","stimB","stimX","subject_nr","subject_parity","time_A","time_B","time_ISI","time_X","time_break","time_determine_break","time_display_listening","time_display_selecting","time_experiment","time_finished","time_getting_started","time_new_inline_script","time_new_logger","time_new_loop","time_new_sequence","time_plain_block","time_setup_breaks","time_wait_nextitem","time_welcome","title","to_break","total_correct","total_response_time","total_responses","uniform_coordinates","width"
"undefined","undefined","undefined","undefined","black","no","legacy","0","uniform","undefined","undefined","undefined","0","0","1","0","0","NA","0","0","0","0","0","0","0","0","0","0","NA","0","0","Fri 26 Jul 2019 12:33:18 PM PDT","500","1000","The main experiment item","yes","NA","ABX_v3.osexp","/home/ubuntu/Desktop/panara","yes","no","mono","no","18","no","white","no","yes","768","0","0","/home/ubuntu/Desktop/panara/subject-116.csv","Jazzy James","3.1.3","4.2.5.wav","4.2.3.wav","4.2.3.wav","0","0","NA","0","NA","6767","NA","6767","NA","100118","1","2","1024","2","48000","-16","experiment","4.2.3.wav","4.2.5.wav","4.2.3.wav","116","even","102234","104692","104192","103450","NA","NA","101233","105438","989","NA","NA","101231","112205","NA","101231","101110","NA","101234","991","New experiment","NA","0","0","0","yes","1024"
"undefined","undefined","undefined","undefined","black","no","legacy","0","uniform","undefined","undefined","undefined","1","1","3","1","1","NA","1","1","0","0","0","1","1","0","1","0","NA","1","0","Fri 26 Jul 2019 12:33:18 PM PDT","500","1000","The main experiment item","yes","NA","ABX_v3.osexp","/home/ubuntu/Desktop/panara","yes","no","mono","no","18","no","white","no","yes","768","1","1","/home/ubuntu/Desktop/panara/subject-116.csv","Jazzy James","3.1.3","4.2.3.wav","4.2.1.wav","4.2.1.wav","0","0","NA","0","NA","892","NA","892","NA","100118","1","2","1024","2","48000","-16","experiment","4.2.1.wav","4.2.3.wav","4.2.1.wav","116","even","113476","115950","115450","114725","NA","NA","112476","116689","989","NA","NA","112474","117582","NA","112473","101110","NA","112476","991","New experiment","NA","0","0","0","yes","1024"
"undefined","undefined","undefined","undefined","black","no","legacy","0","uniform","undefined","undefined","undefined","2","2","5","2","2","NA","2","2","0","0","0","2","2","0","2","0","NA","2","0","Fri 26 Jul 2019 12:33:18 PM PDT","500","1000","The main experiment item","yes","NA","ABX_v3.osexp","/home/ubuntu/Desktop/panara","yes","no","mono","no","18","no","white","no","yes","768","2","2","/home/ubuntu/Desktop/panara/subject-116.csv","Jazzy James","3.1.3","1.1.4.wav","1.1.4.wav","1.1.2.wav","0","1","NA","1","NA","1416","NA","1416","NA","100118","1","2","1024","2","48000","-16","experiment","1.1.2.wav","1.1.4.wav","1.1.4.wav","116","even","118797","121368","120868","120079","NA","NA","117797","122149","989","NA","NA","117794","123565","NA","117794","101110","NA","117797","991","New experiment","NA","0","0","0","yes","1024"
"undefined","undefined","undefined","undefined","black","no","legacy","0","uniform","undefined","undefined","undefined","3","3","7","3","3","NA","3","3","0","0","0","3","3","0","3","0","NA","3","0","Fri 26 Jul 2019 12:33:18 PM PDT","500","1000","The main experiment item","yes","NA","ABX_v3.osexp","/home/ubuntu/Desktop/panara","no","no","mono","no","18","no","white","no","yes","768","3","3","/home/ubuntu/Desktop/panara/subject-116.csv","Jazzy James","3.1.3","4.1.3.wav","4.1.3.wav","4.1.5.wav","0","1","NA","1","NA","1212","NA","1212","NA","100118","1","2","1024","2","48000","-16","experiment","4.1.3.wav","4.1.5.wav","4.1.3.wav","116","even","124781","127219","126719","125997","NA","NA","123781","127975","989","NA","NA","123778","129188","NA","123778","101110","NA","123781","991","New experiment","NA","0","0","0","yes","1024"
"undefined","undefined","undefined","undefined","black","no","legacy","0","uniform","undefined","undefined","undefined","4","4","9","4","4","NA","4","4","0","0","0","4","4","0","4","0","NA","4","0","Fri 26 Jul 2019 12:33:18 PM PDT","500","1000","The main experiment item","yes","NA","ABX_v3.osexp","/home/ubuntu/Desktop/panara","no","no","mono","no","18","no","white","no","yes","768","4","4","/home/ubuntu/Desktop/panara/subject-116.csv","Jazzy James","3.1.3","2.1.3.wav","2.1.5.wav","2.1.5.wav","0","0","NA","0","NA","1910","NA","1910","NA","100118","1","2","1024","2","48000","-16","experiment","2.1.3.wav","2.1.5.wav","2.1.5.wav","116","even","130398","132907","132407","131656","NA","NA","129398","133662","989","NA","NA","129396","135572","NA","129395","101110","NA","129398","991","New experiment","NA","0","0","0","yes","1024"
"undefined","undefined","undefined","undefined","black","no","legacy","0","uniform","undefined","undefined","undefined","5","5","11","5","5","NA","5","5","0","0","0","5","5","0","5","0","NA","5","0","Fri 26 Jul 2019 12:33:18 PM PDT","500","1000","The main experiment item","yes","NA","ABX_v3.osexp","/home/ubuntu/Desktop/panara","no","no","mono","no","18","no","white","no","yes","768","5","5","/home/ubuntu/Desktop/panara/subject-116.csv","Jazzy James","3.1.3","5.2.1.wav","5.2.3.wav","5.2.3.wav","0","0","NA","0","NA","1600","NA","1600","NA","100118","1","2","1024","2","48000","-16","experiment","5.2.1.wav","5.2.3.wav","5.2.3.wav","116","even","136740","139144","138644","137921","NA","NA","135739","139884","989","NA","NA","135737","141484","NA","135737","101110","NA","135739","991","New experiment","NA","0","0","0","yes","1024"
"undefined","undefined","undefined","undefined","black","no","legacy","0","uniform","undefined","undefined","undefined","6","6","13","6","6","NA","6","6","0","0","0","6","6","0","6","0","NA","6","0","Fri 26 Jul 2019 12:33:18 PM PDT","500","1000","The main experiment item","yes","NA","ABX_v3.osexp","/home/ubuntu/Desktop/panara","no","no","mono","no","18","no","white","no","yes","768","6","6","/home/ubuntu/Desktop/panara/subject-116.csv","Jazzy James","3.1.3","2.1.2.wav","2.1.4.wav","2.1.4.wav","0","1","NA","1","NA","3276","NA","3276","NA","100118","1","2","1024","2","48000","-16","experiment","2.1.2.wav","2.1.4.wav","2.1.4.wav","116","even","142690","145202","144702","143951","NA","NA","141690","145950","989","NA","NA","141688","149227","NA","141687","101110","NA","141690","991","New experiment","NA","0","0","0","yes","1024"
"undefined","undefined","undefined","undefined","black","no","legacy","0","uniform","undefined","undefined","undefined","7","7","15","7","7","NA","7","7","0","0","0","7","7","0","7","0","NA","7","0","Fri 26 Jul 2019 12:33:18 PM PDT","500","1000","The main experiment item","yes","NA","ABX_v3.osexp","/home/ubuntu/Desktop/panara","no","no","mono","no","18","no","white","no","yes","768","7","7","/home/ubuntu/Desktop/panara/subject-116.csv","Jazzy James","3.1.3","4.2.2.wav","4.2.2.wav","4.2.4.wav","0","1","NA","1","NA","2421","NA","2421","NA","100118","1","2","1024","2","48000","-16","experiment","4.2.2.wav","4.2.4.wav","4.2.2.wav","116","even","150427","152896","152396","151679","NA","NA","149426","153621","989","NA","NA","149423","156042","NA","149423","101110","NA","149427","991","New experiment","NA","0","0","0","yes","1024"
"undefined","undefined","undefined","undefined","black","no","legacy","0","uniform","undefined","undefined","undefined","8","8","17","8","8","NA","8","8","0","0","0","8","8","0","8","0","NA","8","0","Fri 26 Jul 2019 12:33:18 PM PDT","500","1000","The main experiment item","yes","NA","ABX_v3.osexp","/home/ubuntu/Desktop/panara","no","no","mono","no","18","no","white","no","yes","768","8","8","/home/ubuntu/Desktop/panara/subject-116.csv","Jazzy James","3.1.3","3.1.1.wav","3.1.1.wav","3.1.3.wav","0","1","NA","1","NA","1419","NA","1419","NA","100118","1","2","1024","2","48000","-16","experiment","3.1.1.wav","3.1.3.wav","3.1.1.wav","116","even","157287","159765","159265","158527","NA","NA","156287","160814","989","NA","NA","156285","162234","NA","156285","101110","NA","156287","991","New experiment","NA","0","0","0","yes","1024"
"undefined","undefined","undefined","undefined","black","no","legacy","0","uniform","undefined","undefined","undefined","9","9","19","9","9","NA","9","9","0","0","0","9","9","0","9","0","NA","9","0","Fri 26 Jul 2019 12:33:18 PM PDT","500","1000","The main experiment item","yes","NA","ABX_v3.osexp","/home/ubuntu/Desktop/panara","yes","no","mono","no","18","no","white","no","yes","768","9","9","/home/ubuntu/Desktop/panara/subject-116.csv","Jazzy James","3.1.3","4.2.3.wav","4.2.3.wav","4.2.1.wav","0","0","NA","0","NA","3776","NA","3776","NA","100118","1","2","1024","2","48000","-16","experiment","4.2.1.wav","4.2.3.wav","4.2.3.wav","116","even","163421","165919","165419","164664","NA","NA","162421","166633","989","NA","NA","162418","170409","NA","162418","101110","NA","162421","991","New experiment","NA","0","0","0","yes","1024"
"undefined","undefined","undefined","undefined","black","no","legacy","0","uniform","undefined","undefined","undefined","10","10","21","10","10","NA","10","10","0","0","0","10","10","0","10","0","NA","10","0","Fri 26 Jul 2019 12:33:18 PM PDT","500","1000","The main experiment item","yes","NA","ABX_v3.osexp","/home/ubuntu/Desktop/panara","no","no","mono","no","18","no","white","no","yes","768","10","10","/home/ubuntu/Desktop/panara/subject-116.csv","Jazzy James","3.1.3","4.1.2.wav","4.1.4.wav","4.1.4.wav","0","0","NA","0","NA","2178","NA","2178","NA","100118","1","2","1024","2","48000","-16","experiment","4.1.2.wav","4.1.4.wav","4.1.4.wav","116","even","171614","174069","173569","172821","NA","NA","170613","174799","989","NA","NA","170611","176978","NA","170611","101110","NA","170614","991","New experiment","NA","0","0","0","yes","1024"
"undefined","undefined","undefined","undefined","black","no","legacy","0","uniform","undefined","undefined","undefined","11","11","23","11","11","NA","11","11","0","0","0","11","11","0","11","0","NA","11","0","Fri 26 Jul 2019 12:33:18 PM PDT","500","1000","The main experiment item","yes","NA","ABX_v3.osexp","/home/ubuntu/Desktop/panara","yes","no","mono","no","18","no","white","no","yes","768","11","11","/home/ubuntu/Desktop/panara/subject-116.csv","Jazzy James","3.1.3","2.2.4.wav","2.2.2.wav","2.2.2.wav","0","1","NA","1","NA","5337","NA","5337","NA","100118","1","2","1024","2","48000","-16","experiment","2.2.2.wav","2.2.4.wav","2.2.2.wav","116","even","178210","180714","180214","179465","NA","NA","177209","181464","989","NA","NA","177207","186801","NA","177207","101110","NA","177210","991","New experiment","NA","0","0","0","yes","1024"
"undefined","undefined","undefined","undefined","black","no","legacy","0","uniform","undefined","undefined","undefined","12","12","25","12","12","NA","12","12","0","0","0","12","12","0","12","0","NA","12","0","Fri 26 Jul 2019 12:33:18 PM PDT","500","1000","The main experiment item","yes","NA","ABX_v3.osexp","/home/ubuntu/Desktop/panara","no","no","mono","no","18","no","white","no","yes","768","12","12","/home/ubuntu/Desktop/panara/subject-116.csv","Jazzy James","3.1.3","3.2.2.wav","3.2.4.wav","3.2.4.wav","0","1","NA","1","NA","2388","NA","2388","NA","100118","1","2","1024","2","48000","-16","experiment","3.2.2.wav","3.2.4.wav","3.2.4.wav","116","even","188025","190552","190052","189298","NA","NA","187024","191300","989","NA","NA","187022","193689","NA","187022","101110","NA","187025","991","New experiment","NA","0","0","0","yes","1024"
"undefined","undefined","undefined","undefined","black","no","legacy","0","uniform","undefined","undefined","undefined","13","13","27","13","13","NA","13","13","0","0","0","13","13","0","13","0","NA","13","0","Fri 26 Jul 2019 12:33:18 PM PDT","500","1000","The main experiment item","yes","NA","ABX_v3.osexp","/home/ubuntu/Desktop/panara","yes","no","mono","no","18","no","white","no","yes","768","13","13","/home/ubuntu/Desktop/panara/subject-116.csv","Jazzy James","3.1.3","2.1.3.wav","2.1.1.wav","2.1.1.wav","0","0","NA","0","NA","1676","NA","1676","NA","100118","1","2","1024","2","48000","-16","experiment","2.1.1.wav","2.1.3.wav","2.1.1.wav","116","even","194890","197401","196901","196150","NA","NA","193890","198148","989","NA","NA","193888","199824","NA","193887","101110","NA","193890","991","New experiment","NA","0","0","0","yes","1024"
"undefined","undefined","undefined","undefined","black","no","legacy","0","uniform","undefined","undefined","undefined","14","14","29","14","14","NA","14","14","0","0","0","14","14","0","14","0","NA","14","0","Fri 26 Jul 2019 12:33:18 PM PDT","500","1000","The main experiment item","yes","NA","ABX_v3.osexp","/home/ubuntu/Desktop/panara","no","no","mono","no","18","no","white","no","yes","768","14","14","/home/ubuntu/Desktop/panara/subject-116.csv","Jazzy James","3.1.3","1.2.1.wav","1.2.1.wav","1.2.3.wav","0","1","NA","1","NA","3509","NA","3509","NA","100118","1","2","1024","2","48000","-16","experiment","1.2.1.wav","1.2.3.wav","1.2.1.wav","116","even","200988","203544","203044","202265","NA","NA","199987","204322","989","NA","NA","199985","207832","NA","199985","101110","NA","199988","991","New experiment","NA","0","0","0","yes","1024"
"undefined","undefined","undefined","undefined","black","no","legacy","0","uniform","undefined","undefined","undefined","15","15","31","15","15","NA","15","15","0","0","0","15","15","0","15","0","NA","15","0","Fri 26 Jul 2019 12:33:18 PM PDT","500","1000","The main experiment item","yes","NA","ABX_v3.osexp","/home/ubuntu/Desktop/panara","yes","no","mono","no","18","no","white","no","yes","768","15","15","/home/ubuntu/Desktop/panara/subject-116.csv","Jazzy James","3.1.3","4.1.4.wav","4.1.2.wav","4.1.2.wav","0","1","NA","1","NA","1841","NA","1841","NA","100118","1","2","1024","2","48000","-16","experiment","4.1.2.wav","4.1.4.wav","4.1.2.wav","116","even","208997","211438","210938","210226","NA","NA","207997","212150","989","NA","NA","207994","213991","NA","207994","101110","NA","207997","991","New experiment","NA","0","0","0","yes","1024"
"undefined","undefined","undefined","undefined","black","no","legacy","0","uniform","undefined","undefined","undefined","16","16","33","16","16","NA","16","16","0","0","0","16","16","0","16","0","NA","16","0","Fri 26 Jul 2019 12:33:18 PM PDT","500","1000","The main experiment item","yes","NA","ABX_v3.osexp","/home/ubuntu/Desktop/panara","yes","no","mono","no","18","no","white","no","yes","768","16","16","/home/ubuntu/Desktop/panara/subject-116.csv","Jazzy James","3.1.3","3.1.4.wav","3.1.2.wav","3.1.2.wav","0","1","NA","1","NA","1071","NA","1071","NA","100118","1","2","1024","2","48000","-16","experiment","3.1.2.wav","3.1.4.wav","3.1.2.wav","116","even","215207","217768","217268","216498","NA","NA","214207","218560","989","NA","NA","214204","219631","NA","214204","101110","NA","214207","991","New experiment","NA","0","0","0","yes","1024"
"undefined","undefined","undefined","undefined","black","no","legacy","0","uniform","undefined","undefined","undefined","17","17","35","17","17","NA","17","17","0","0","0","17","17","0","17","0","NA","17","0","Fri 26 Jul 2019 12:33:18 PM PDT","500","1000","The main experiment item","yes","NA","ABX_v3.osexp","/home/ubuntu/Desktop/panara","yes","no","mono","no","18","no","white","no","yes","768","17","17","/home/ubuntu/Desktop/panara/subject-116.csv","Jazzy James","3.1.3","5.2.5.wav","5.2.5.wav","5.2.3.wav","0","1","NA","1","NA","6344","NA","6344","NA","100118","1","2","1024","2","48000","-16","experiment","5.2.3.wav","5.2.5.wav","5.2.5.wav","116","even","220830","223301","222801","222056","NA","NA","219829","224013","989","NA","NA","219827","230357","NA","219827","101110","NA","219830","991","New experiment","NA","0","0","0","yes","1024"
"undefined","undefined","undefined","undefined","black","no","legacy","0","uniform","undefined","undefined","undefined","18","18","37","18","18","NA","18","18","0","0","0","18","18","0","18","0","NA","18","0","Fri 26 Jul 2019 12:33:18 PM PDT","500","1000","The main experiment item","yes","NA","ABX_v3.osexp","/home/ubuntu/Desktop/panara","yes","no","mono","no","18","no","white","no","yes","768","18","18","/home/ubuntu/Desktop/panara/subject-116.csv","Jazzy James","3.1.3","2.2.4.wav","2.2.4.wav","2.2.2.wav","0","1","NA","1","NA","1260","NA","1260","NA","100118","1","2","1024","2","48000","-16","experiment","2.2.2.wav","2.2.4.wav","2.2.4.wav","116","even","231507","233955","233455","232724","NA","NA","230507","234681","989","NA","NA","230505","235942","NA","230505","101110","NA","230507","991","New experiment","NA","0","0","0","yes","1024"
"undefined","undefined","undefined","undefined","black","no","legacy","0","uniform","undefined","undefined","undefined","19","19","39","19","19","NA","19","19","0","0","0","19","19","0","19","0","NA","19","0","Fri 26 Jul 2019 12:33:18 PM PDT","500","1000","The main experiment item","yes","NA","ABX_v3.osexp","/home/ubuntu/Desktop/panara","no","no","mono","no","18","no","white","no","yes","768","19","19","/home/ubuntu/Desktop/panara/subject-116.csv","Jazzy James","3.1.3","4.2.2.wav","4.2.4.wav","4.2.4.wav","0","1","NA","1","NA","1221","NA","1221","NA","100118","1","2","1024","2","48000","-16","experiment","4.2.2.wav","4.2.4.wav","4.2.4.wav","116","even","237101","239557","239057","238335","NA","NA","236100","240312","989","NA","NA","236097","241533","NA","236097","101110","NA","236101","991","New experiment","NA","0","0","0","yes","1024"
"undefined","undefined","undefined","undefined","black","no","legacy","0","uniform","undefined","undefined","undefined","20","20","41","20","20","NA","20","20","0","0","0","20","20","0","20","0","NA","20","0","Fri 26 Jul 2019 12:33:18 PM PDT","500","1000","The main experiment item","yes","NA","ABX_v3.osexp","/home/ubuntu/Desktop/panara","yes","no","mono","no","18","no","white","no","yes","768","20","20","/home/ubuntu/Desktop/panara/subject-116.csv","Jazzy James","3.1.3","5.2.3.wav","5.2.1.wav","5.2.1.wav","0","1","NA","1","NA","1327","NA","1327","NA","100118","1","2","1024","2","48000","-16","experiment","5.2.1.wav","5.2.3.wav","5.2.1.wav","116","even","242688","245141","244641","243924","NA","NA","241687","245837","989","NA","NA","241685","247164","NA","241684","101110","NA","241688","991","New experiment","NA","0","0","0","yes","1024"
"undefined","undefined","undefined","undefined","black","no","legacy","0","uniform","undefined","undefined","undefined","21","21","43","21","21","NA","21","21","0","0","0","21","21","0","21","0","NA","21","0","Fri 26 Jul 2019 12:33:18 PM PDT","500","1000","The main experiment item","yes","NA","ABX_v3.osexp","/home/ubuntu/Desktop/panara","no","no","mono","no","18","no","white","no","yes","768","21","21","/home/ubuntu/Desktop/panara/subject-116.csv","Jazzy James","3.1.3","5.2.2.wav","5.2.4.wav","5.2.4.wav","0","1","NA","1","NA","2699","NA","2699","NA","100118","1","2","1024","2","48000","-16","experiment","5.2.2.wav","5.2.4.wav","5.2.4.wav","116","even","248382","250828","250328","249576","NA","NA","247381","251576","989","NA","NA","247379","254276","NA","247379","101110","NA","247382","991","New experiment","NA","0","0","0","yes","1024"
"undefined","undefined","undefined","undefined","black","no","legacy","0","uniform","undefined","undefined","undefined","22","22","45","22","22","NA","22","22","0","0","0","22","22","0","22","0","NA","22","0","Fri 26 Jul 2019 12:33:18 PM PDT","500","1000","The main experiment item","yes","NA","ABX_v3.osexp","/home/ubuntu/Desktop/panara","no","no","mono","no","18","no","white","no","yes","768","22","22","/home/ubuntu/Desktop/panara/subject-116.csv","Jazzy James","3.1.3","3.2.3.wav","3.2.5.wav","3.2.5.wav","0","1","NA","1","NA","1461","NA","1461","NA","100118","1","2","1024","2","48000","-16","experiment","3.2.3.wav","3.2.5.wav","3.2.5.wav","116","even","255488","258010","257510","256729","NA","NA","254488","258774","989","NA","NA","254485","260235","NA","254485","101110","NA","254488","991","New experiment","NA","0","0","0","yes","1024"
"undefined","undefined","undefined","undefined","black","no","legacy","0","uniform","undefined","undefined","undefined","23","23","47","23","23","NA","23","23","0","0","0","23","23","0","23","0","NA","23","0","Fri 26 Jul 2019 12:33:18 PM PDT","500","1000","The main experiment item","yes","NA","ABX_v3.osexp","/home/ubuntu/Desktop/panara","no","no","mono","no","18","no","white","no","yes","768","23","23","/home/ubuntu/Desktop/panara/subject-116.csv","Jazzy James","3.1.3","2.1.2.wav","2.1.2.wav","2.1.4.wav","0","1","NA","1","NA","1665","NA","1665","NA","100118","1","2","1024","2","48000","-16","experiment","2.1.2.wav","2.1.4.wav","2.1.2.wav","116","even","261397","263869","263369","262632","NA","NA","260397","264609","989","NA","NA","260394","266275","NA","260394","101110","NA","260397","991","New experiment","NA","0","0","0","yes","1024"
"undefined","undefined","undefined","undefined","black","no","legacy","0","uniform","undefined","undefined","undefined","24","24","49","24","24","NA","24","24","0","0","0","24","24","0","24","0","NA","24","0","Fri 26 Jul 2019 12:33:18 PM PDT","500","1000","The main experiment item","yes","NA","ABX_v3.osexp","/home/ubuntu/Desktop/panara","no","no","mono","no","18","no","white","no","yes","768","24","24","/home/ubuntu/Desktop/panara/subject-116.csv","Jazzy James","3.1.3","1.1.3.wav","1.1.5.wav","1.1.5.wav","0","1","NA","1","NA","2347","NA","2347","NA","100118","1","2","1024","2","48000","-16","experiment","1.1.3.wav","1.1.5.wav","1.1.5.wav","116","even","267467","270041","269541","268767","NA","NA","266467","270823","989","NA","NA","266465","273170","NA","266464","101110","NA","266467","991","New experiment","NA","0","0","0","yes","1024"
"undefined","undefined","undefined","undefined","black","no","legacy","0","uniform","undefined","undefined","undefined","25","25","51","25","25","NA","25","25","0","0","0","25","25","0","25","0","NA","25","0","Fri 26 Jul 2019 12:33:18 PM PDT","500","1000","The main experiment item","yes","NA","ABX_v3.osexp","/home/ubuntu/Desktop/panara","no","no","mono","no","18","no","white","no","yes","768","25","25","/home/ubuntu/Desktop/panara/subject-116.csv","Jazzy James","3.1.3","1.2.3.wav","1.2.3.wav","1.2.5.wav","0","1","NA","1","NA","973","NA","973","NA","100118","1","2","1024","2","48000","-16","experiment","1.2.3.wav","1.2.5.wav","1.2.3.wav","116","even","274346","276903","276403","275623","NA","NA","273346","277678","989","NA","NA","273343","278651","NA","273343","101110","NA","273346","991","New experiment","NA","0","0","0","yes","1024"
"undefined","undefined","undefined","undefined","black","no","legacy","0","uniform","undefined","undefined","undefined","26","26","53","26","26","NA","26","26","0","0","0","26","26","0","26","0","NA","26","0","Fri 26 Jul 2019 12:33:18 PM PDT","500","1000","The main experiment item","yes","NA","ABX_v3.osexp","/home/ubuntu/Desktop/panara","no","no","mono","no","18","no","white","no","yes","768","26","26","/home/ubuntu/Desktop/panara/subject-116.csv","Jazzy James","3.1.3","1.2.1.wav","1.2.3.wav","1.2.3.wav","0","1","NA","1","NA","974","NA","974","NA","100118","1","2","1024","2","48000","-16","experiment","1.2.1.wav","1.2.3.wav","1.2.3.wav","116","even","279799","282371","281871","281092","NA","NA","278798","283147","989","NA","NA","278795","284122","NA","278795","101110","NA","278799","991","New experiment","NA","0","0","0","yes","1024"
"undefined","undefined","undefined","undefined","black","no","legacy","0","uniform","undefined","undefined","undefined","27","27","55","27","27","NA","27","27","0","0","0","27","27","0","27","0","NA","27","0","Fri 26 Jul 2019 12:33:18 PM PDT","500","1000","The main experiment item","yes","NA","ABX_v3.osexp","/home/ubuntu/Desktop/panara","no","no","mono","no","18","no","white","no","yes","768","27","27","/home/ubuntu/Desktop/panara/subject-116.csv","Jazzy James","3.1.3","3.2.1.wav","3.2.1.wav","3.2.3.wav","0","0","NA","0","NA","3279","NA","3279","NA","100118","1","2","1024","2","48000","-16","experiment","3.2.1.wav","3.2.3.wav","3.2.1.wav","116","even","285332","288116","287616","286883","NA","NA","284332","288882","989","NA","NA","284329","292161","NA","284329","101110","NA","284332","991","New experiment","NA","0","0","0","yes","1024"
"undefined","undefined","undefined","undefined","black","no","legacy","0","uniform","undefined","undefined","undefined","28","28","57","28","28","NA","28","28","0","0","0","28","28","0","28","0","NA","28","0","Fri 26 Jul 2019 12:33:18 PM PDT","500","1000","The main experiment item","yes","NA","ABX_v3.osexp","/home/ubuntu/Desktop/panara","no","no","mono","no","18","no","white","no","yes","768","28","28","/home/ubuntu/Desktop/panara/subject-116.csv","Jazzy James","3.1.3","3.2.1.wav","3.2.3.wav","3.2.3.wav","0","1","NA","1","NA","1699","NA","1699","NA","100118","1","2","1024","2","48000","-16","experiment","3.2.1.wav","3.2.3.wav","3.2.3.wav","116","even","293334","295846","295346","294601","NA","NA","292334","296605","989","NA","NA","292331","298305","NA","292331","101110","NA","292334","991","New experiment","NA","0","0","0","yes","1024"
"undefined","undefined","undefined","undefined","black","no","legacy","0","uniform","undefined","undefined","undefined","29","29","59","29","29","NA","29","29","0","0","0","29","29","0","29","0","NA","29","0","Fri 26 Jul 2019 12:33:18 PM PDT","500","1000","The main experiment item","yes","NA","ABX_v3.osexp","/home/ubuntu/Desktop/panara","yes","no","mono","no","18","no","white","no","yes","768","29","29","/home/ubuntu/Desktop/panara/subject-116.csv","Jazzy James","3.1.3","1.1.3.wav","1.1.3.wav","1.1.1.wav","0","1","NA","1","NA","772","NA","772","NA","100118","1","2","1024","2","48000","-16","experiment","1.1.1.wav","1.1.3.wav","1.1.3.wav","116","even","299483","302085","301585","300808","NA","NA","298482","302893","989","NA","NA","298479","303665","NA","298479","101110","NA","298483","991","New experiment","NA","0","0","0","yes","1024"
"undefined","undefined","undefined","undefined","black","no","legacy","0","uniform","undefined","undefined","undefined","30","30","61","30","30","NA","30","30","0","0","0","30","30","0","30","0","NA","30","0","Fri 26 Jul 2019 12:33:18 PM PDT","500","1000","The main experiment item","yes","NA","ABX_v3.osexp","/home/ubuntu/Desktop/panara","yes","no","mono","no","18","no","white","no","yes","768","30","30","/home/ubuntu/Desktop/panara/subject-116.csv","Jazzy James","3.1.3","2.1.3.wav","2.1.3.wav","2.1.1.wav","0","1","NA","1","NA","704","NA","704","NA","100118","1","2","1024","2","48000","-16","experiment","2.1.1.wav","2.1.3.wav","2.1.3.wav","116","even","304788","307289","306789","306039","NA","NA","303788","308033","989","NA","NA","303785","308737","NA","303785","101110","NA","303788","991","New experiment","NA","0","0","0","yes","1024"
"undefined","undefined","undefined","undefined","black","no","legacy","0","uniform","undefined","undefined","undefined","31","31","63","31","31","NA","31","31","0","0","0","31","31","0","31","0","NA","31","0","Fri 26 Jul 2019 12:33:18 PM PDT","500","1000","The main experiment item","yes","NA","ABX_v3.osexp","/home/ubuntu/Desktop/panara","yes","no","mono","no","18","no","white","no","yes","768","31","31","/home/ubuntu/Desktop/panara/subject-116.csv","Jazzy James","3.1.3","4.1.3.wav","4.1.3.wav","4.1.1.wav","0","1","NA","1","NA","1059","NA","1059","NA","100118","1","2","1024","2","48000","-16","experiment","4.1.1.wav","4.1.3.wav","4.1.3.wav","116","even","309921","312372","311871","311156","NA","NA","308920","313084","989","NA","NA","308918","314144","NA","308918","101110","NA","308921","991","New experiment","NA","0","0","0","yes","1024"
"undefined","undefined","undefined","undefined","black","no","legacy","0","uniform","undefined","undefined","undefined","32","32","65","32","32","NA","32","32","0","0","0","32","32","0","32","0","NA","32","0","Fri 26 Jul 2019 12:33:18 PM PDT","500","1000","The main experiment item","yes","NA","ABX_v3.osexp","/home/ubuntu/Desktop/panara","yes","no","mono","no","18","no","white","no","yes","768","32","32","/home/ubuntu/Desktop/panara/subject-116.csv","Jazzy James","3.1.3","2.2.5.wav","2.2.3.wav","2.2.3.wav","0","1","NA","1","NA","1918","NA","1918","NA","100118","1","2","1024","2","48000","-16","experiment","2.2.3.wav","2.2.5.wav","2.2.3.wav","116","even","315348","317810","317310","316598","NA","NA","314347","318546","989","NA","NA","314344","320464","NA","314344","101110","NA","314347","991","New experiment","NA","0","0","0","yes","1024"
"undefined","undefined","undefined","undefined","black","no","legacy","0","uniform","undefined","undefined","undefined","33","33","67","33","33","NA","33","33","0","0","0","33","33","0","33","0","NA","33","0","Fri 26 Jul 2019 12:33:18 PM PDT","500","1000","The main experiment item","yes","NA","ABX_v3.osexp","/home/ubuntu/Desktop/panara","no","no","mono","no","18","no","white","no","yes","768","33","33","/home/ubuntu/Desktop/panara/subject-116.csv","Jazzy James","3.1.3","3.1.3.wav","3.1.5.wav","3.1.5.wav","0","1","NA","1","NA","2117","NA","2117","NA","100118","1","2","1024","2","48000","-16","experiment","3.1.3.wav","3.1.5.wav","3.1.5.wav","116","even","321683","324206","323706","322932","NA","NA","320683","324977","989","NA","NA","320681","327095","NA","320681","101110","NA","320683","991","New experiment","NA","0","0","0","yes","1024"
"undefined","undefined","undefined","undefined","black","no","legacy","0","uniform","undefined","undefined","undefined","34","34","69","34","34","NA","34","34","0","0","0","34","34","0","34","0","NA","34","0","Fri 26 Jul 2019 12:33:18 PM PDT","500","1000","The main experiment item","yes","NA","ABX_v3.osexp","/home/ubuntu/Desktop/panara","yes","no","mono","no","18","no","white","no","yes","768","34","34","/home/ubuntu/Desktop/panara/subject-116.csv","Jazzy James","3.1.3","3.1.3.wav","3.1.3.wav","3.1.1.wav","0","0","NA","0","NA","1739","NA","1739","NA","100118","1","2","1024","2","48000","-16","experiment","3.1.1.wav","3.1.3.wav","3.1.3.wav","116","even","328253","330758","330258","329507","NA","NA","327253","331507","989","NA","NA","327251","333246","NA","327251","101110","NA","327253","991","New experiment","NA","0","0","0","yes","1024"
"undefined","undefined","undefined","undefined","black","no","legacy","0","uniform","undefined","undefined","undefined","35","35","71","35","35","NA","35","35","0","0","0","35","35","0","35","0","NA","35","0","Fri 26 Jul 2019 12:33:18 PM PDT","500","1000","The main experiment item","yes","NA","ABX_v3.osexp","/home/ubuntu/Desktop/panara","yes","no","mono","no","18","no","white","no","yes","768","35","35","/home/ubuntu/Desktop/panara/subject-116.csv","Jazzy James","3.1.3","4.1.5.wav","4.1.5.wav","4.1.3.wav","0","0","NA","0","NA","1715","NA","1715","NA","100118","1","2","1024","2","48000","-16","experiment","4.1.3.wav","4.1.5.wav","4.1.5.wav","116","even","334411","336907","336407","335660","NA","NA","333410","337642","989","NA","NA","333407","339358","NA","333407","101110","NA","333411","991","New experiment","NA","0","0","0","yes","1024"
"undefined","undefined","undefined","undefined","black","no","legacy","0","uniform","undefined","undefined","undefined","36","36","73","36","36","NA","36","36","0","0","0","36","36","0","36","0","NA","36","0","Fri 26 Jul 2019 12:33:18 PM PDT","500","1000","The main experiment item","yes","NA","ABX_v3.osexp","/home/ubuntu/Desktop/panara","no","no","mono","no","18","no","white","no","yes","768","36","36","/home/ubuntu/Desktop/panara/subject-116.csv","Jazzy James","3.1.3","3.1.3.wav","3.1.3.wav","3.1.5.wav","0","1","NA","1","NA","1532","NA","1532","NA","100118","1","2","1024","2","48000","-16","experiment","3.1.3.wav","3.1.5.wav","3.1.3.wav","116","even","340522","343029","342529","341783","NA","NA","339522","343809","989","NA","NA","339520","345342","NA","339519","101110","NA","339522","991","New experiment","NA","0","0","0","yes","1024"
"undefined","undefined","undefined","undefined","black","no","legacy","0","uniform","undefined","undefined","undefined","37","37","75","37","37","NA","37","37","0","0","0","37","37","0","37","0","NA","37","0","Fri 26 Jul 2019 12:33:18 PM PDT","500","1000","The main experiment item","yes","NA","ABX_v3.osexp","/home/ubuntu/Desktop/panara","yes","no","mono","no","18","no","white","no","yes","768","37","37","/home/ubuntu/Desktop/panara/subject-116.csv","Jazzy James","3.1.3","2.2.5.wav","2.2.5.wav","2.2.3.wav","0","1","NA","1","NA","2492","NA","2492","NA","100118","1","2","1024","2","48000","-16","experiment","2.2.3.wav","2.2.5.wav","2.2.5.wav","116","even","346501","348941","348441","347717","NA","NA","345501","349681","989","NA","NA","345498","352173","NA","345498","101110","NA","345501","991","New experiment","NA","0","0","0","yes","1024"
"undefined","undefined","undefined","undefined","black","no","legacy","0","uniform","undefined","undefined","undefined","38","38","77","38","38","NA","38","38","0","0","0","38","38","0","38","0","NA","38","0","Fri 26 Jul 2019 12:33:18 PM PDT","500","1000","The main experiment item","yes","NA","ABX_v3.osexp","/home/ubuntu/Desktop/panara","yes","no","mono","no","18","no","white","no","yes","768","38","38","/home/ubuntu/Desktop/panara/subject-116.csv","Jazzy James","3.1.3","3.2.4.wav","3.2.2.wav","3.2.2.wav","0","1","NA","1","NA","2035","NA","2035","NA","100118","1","2","1024","2","48000","-16","experiment","3.2.2.wav","3.2.4.wav","3.2.2.wav","116","even","353350","355895","355395","354610","NA","NA","352350","356666","989","NA","NA","352348","358702","NA","352347","101110","NA","352350","991","New experiment","NA","0","0","0","yes","1024"
"undefined","undefined","undefined","undefined","black","no","legacy","0","uniform","undefined","undefined","undefined","39","39","79","39","39","NA","39","39","0","0","0","39","39","0","39","0","NA","39","0","Fri 26 Jul 2019 12:33:18 PM PDT","500","1000","The main experiment item","yes","NA","ABX_v3.osexp","/home/ubuntu/Desktop/panara","yes","no","mono","no","18","no","white","no","yes","768","39","39","/home/ubuntu/Desktop/panara/subject-116.csv","Jazzy James","3.1.3","1.1.4.wav","1.1.2.wav","1.1.2.wav","0","1","NA","1","NA","918","NA","918","NA","100118","1","2","1024","2","48000","-16","experiment","1.1.2.wav","1.1.4.wav","1.1.2.wav","116","even","359833","362402","361902","361111","NA","NA","358833","363214","989","NA","NA","358830","364132","NA","358830","101110","NA","358833","991","New experiment","NA","0","0","0","yes","1024"
"undefined","undefined","undefined","undefined","black","no","legacy","0","uniform","undefined","undefined","undefined","40","40","81","40","40","NA","40","40","0","0","0","40","40","0","40","0","NA","40","0","Fri 26 Jul 2019 12:33:18 PM PDT","500","1000","The main experiment item","yes","NA","ABX_v3.osexp","/home/ubuntu/Desktop/panara","yes","no","mono","no","18","no","white","no","yes","768","40","40","/home/ubuntu/Desktop/panara/subject-116.csv","Jazzy James","3.1.3","1.2.5.wav","1.2.5.wav","1.2.3.wav","0","1","NA","1","NA","763","NA","763","NA","100118","1","2","1024","2","48000","-16","experiment","1.2.3.wav","1.2.5.wav","1.2.5.wav","116","even","365318","367896","367396","366613","NA","NA","364318","368680","989","NA","NA","364316","369444","NA","364315","101110","NA","364318","991","New experiment","NA","0","0","0","yes","1024"
"undefined","undefined","undefined","undefined","black","no","legacy","0","uniform","undefined","undefined","undefined","41","41","83","41","41","NA","41","41","0","0","0","41","41","0","41","0","NA","41","0","Fri 26 Jul 2019 12:33:18 PM PDT","500","1000","The main experiment item","yes","NA","ABX_v3.osexp","/home/ubuntu/Desktop/panara","yes","no","mono","no","18","no","white","no","yes","768","41","41","/home/ubuntu/Desktop/panara/subject-116.csv","Jazzy James","3.1.3","1.1.5.wav","1.1.3.wav","1.1.3.wav","0","1","NA","1","NA","1083","NA","1083","NA","100118","1","2","1024","2","48000","-16","experiment","1.1.3.wav","1.1.5.wav","1.1.3.wav","116","even","370604","373205","372705","371894","NA","NA","369603","373992","989","NA","NA","369601","375076","NA","369601","101110","NA","369604","991","New experiment","NA","0","0","0","yes","1024"
"undefined","undefined","undefined","undefined","black","no","legacy","0","uniform","undefined","undefined","undefined","42","42","85","42","42","NA","42","42","0","0","0","42","42","0","42","0","NA","42","0","Fri 26 Jul 2019 12:33:18 PM PDT","500","1000","The main experiment item","yes","NA","ABX_v3.osexp","/home/ubuntu/Desktop/panara","yes","no","mono","no","18","no","white","no","yes","768","42","42","/home/ubuntu/Desktop/panara/subject-116.csv","Jazzy James","3.1.3","2.1.5.wav","2.1.3.wav","2.1.3.wav","0","1","NA","1","NA","759","NA","759","NA","100118","1","2","1024","2","48000","-16","experiment","2.1.3.wav","2.1.5.wav","2.1.3.wav","116","even","376274","378758","378258","377522","NA","NA","375274","379516","989","NA","NA","375272","380275","NA","375272","101110","NA","375274","991","New experiment","NA","0","0","0","yes","1024"
"undefined","undefined","undefined","undefined","black","no","legacy","0","uniform","undefined","undefined","undefined","43","43","87","43","43","NA","43","43","0","0","0","43","43","0","43","0","NA","43","0","Fri 26 Jul 2019 12:33:18 PM PDT","500","1000","The main experiment item","yes","NA","ABX_v3.osexp","/home/ubuntu/Desktop/panara","no","no","mono","no","18","no","white","no","yes","768","43","43","/home/ubuntu/Desktop/panara/subject-116.csv","Jazzy James","3.1.3","2.2.1.wav","2.2.1.wav","2.2.3.wav","0","1","NA","1","NA","597","NA","597","NA","100118","1","2","1024","2","48000","-16","experiment","2.2.1.wav","2.2.3.wav","2.2.1.wav","116","even","381448","383912","383412","382701","NA","NA","380448","384637","989","NA","NA","380445","385235","NA","380445","101110","NA","380448","991","New experiment","NA","0","0","0","yes","1024"
"undefined","undefined","undefined","undefined","black","no","legacy","0","uniform","undefined","undefined","undefined","44","44","89","44","44","NA","44","44","0","0","0","44","44","0","44","0","NA","44","0","Fri 26 Jul 2019 12:33:18 PM PDT","500","1000","The main experiment item","yes","NA","ABX_v3.osexp","/home/ubuntu/Desktop/panara","no","no","mono","no","18","no","white","no","yes","768","44","44","/home/ubuntu/Desktop/panara/subject-116.csv","Jazzy James","3.1.3","4.1.1.wav","4.1.1.wav","4.1.3.wav","0","0","NA","0","NA","1835","NA","1835","NA","100118","1","2","1024","2","48000","-16","experiment","4.1.1.wav","4.1.3.wav","4.1.1.wav","116","even","386378","388845","388345","387633","NA","NA","385378","389559","989","NA","NA","385376","391394","NA","385376","101110","NA","385378","991","New experiment","NA","0","0","0","yes","1024"
"undefined","undefined","undefined","undefined","black","no","legacy","0","uniform","undefined","undefined","undefined","45","45","91","45","45","NA","45","45","0","0","0","45","45","0","45","0","NA","45","0","Fri 26 Jul 2019 12:33:18 PM PDT","500","1000","The main experiment item","yes","NA","ABX_v3.osexp","/home/ubuntu/Desktop/panara","no","no","mono","no","18","no","white","no","yes","768","45","45","/home/ubuntu/Desktop/panara/subject-116.csv","Jazzy James","3.1.3","1.2.2.wav","1.2.2.wav","1.2.4.wav","0","1","NA","1","NA","1106","NA","1106","NA","100118","1","2","1024","2","48000","-16","experiment","1.2.2.wav","1.2.4.wav","1.2.2.wav","116","even","392583","395147","394647","393857","NA","NA","391582","395896","989","NA","NA","391580","397002","NA","391580","101110","NA","391583","991","New experiment","NA","0","0","0","yes","1024"
"undefined","undefined","undefined","undefined","black","no","legacy","0","uniform","undefined","undefined","undefined","46","46","93","46","46","NA","46","46","0","0","0","46","46","0","46","0","NA","46","0","Fri 26 Jul 2019 12:33:18 PM PDT","500","1000","The main experiment item","yes","NA","ABX_v3.osexp","/home/ubuntu/Desktop/panara","no","no","mono","no","18","no","white","no","yes","768","46","46","/home/ubuntu/Desktop/panara/subject-116.csv","Jazzy James","3.1.3","5.2.3.wav","5.2.3.wav","5.2.5.wav","0","1","NA","1","NA","1311","NA","1311","NA","100118","1","2","1024","2","48000","-16","experiment","5.2.3.wav","5.2.5.wav","5.2.3.wav","116","even","398171","400616","400116","399410","NA","NA","397171","401339","989","NA","NA","397168","402652","NA","397168","101110","NA","397171","991","New experiment","NA","0","0","0","yes","1024"
"undefined","undefined","undefined","undefined","black","no","legacy","0","uniform","undefined","undefined","undefined","47","47","95","47","47","NA","47","47","0","0","0","47","47","0","47","0","NA","47","0","Fri 26 Jul 2019 12:33:18 PM PDT","500","1000","The main experiment item","yes","NA","ABX_v3.osexp","/home/ubuntu/Desktop/panara","no","no","mono","no","18","no","white","no","yes","768","47","47","/home/ubuntu/Desktop/panara/subject-116.csv","Jazzy James","3.1.3","3.2.3.wav","3.2.3.wav","3.2.5.wav","0","1","NA","1","NA","4133","NA","4133","NA","100118","1","2","1024","2","48000","-16","experiment","3.2.3.wav","3.2.5.wav","3.2.3.wav","116","even","403811","406295","405795","405063","NA","NA","402811","407084","989","NA","NA","402808","411217","NA","402808","101110","NA","402811","991","New experiment","NA","0","0","0","yes","1024"
"undefined","undefined","undefined","undefined","black","no","legacy","0","uniform","undefined","undefined","undefined","48","48","97","48","48","NA","48","48","0","0","0","48","48","0","48","0","NA","48","0","Fri 26 Jul 2019 12:33:18 PM PDT","500","1000","The main experiment item","yes","NA","ABX_v3.osexp","/home/ubuntu/Desktop/panara","yes","no","mono","no","18","no","white","no","yes","768","48","48","/home/ubuntu/Desktop/panara/subject-116.csv","Jazzy James","3.1.3","3.1.4.wav","3.1.4.wav","3.1.2.wav","0","0","NA","0","NA","2273","NA","2273","NA","100118","1","2","1024","2","48000","-16","experiment","3.1.2.wav","3.1.4.wav","3.1.4.wav","116","even","412385","414932","414432","413662","NA","NA","411385","415720","989","NA","NA","411383","417994","NA","411383","101110","NA","411385","991","New experiment","NA","0","0","0","yes","1024"
"undefined","undefined","undefined","undefined","black","no","legacy","0","uniform","undefined","undefined","undefined","49","49","99","49","49","NA","49","49","0","0","0","49","49","0","49","0","NA","49","0","Fri 26 Jul 2019 12:33:18 PM PDT","500","1000","The main experiment item","yes","NA","ABX_v3.osexp","/home/ubuntu/Desktop/panara","no","no","mono","no","18","no","white","no","yes","768","49","49","/home/ubuntu/Desktop/panara/subject-116.csv","Jazzy James","3.1.3","4.2.3.wav","4.2.5.wav","4.2.5.wav","0","0","NA","0","NA","672","NA","672","NA","100118","1","2","1024","2","48000","-16","experiment","4.2.3.wav","4.2.5.wav","4.2.5.wav","116","even","419158","421658","421158","420395","NA","NA","418157","422376","989","NA","NA","418155","423048","NA","418155","101110","NA","418158","991","New experiment","NA","0","0","0","yes","1024"
"undefined","undefined","undefined","undefined","black","no","legacy","0","uniform","undefined","undefined","undefined","50","50","101","50","50","NA","50","50","0","0","0","50","50","0","50","0","NA","50","0","Fri 26 Jul 2019 12:33:18 PM PDT","500","1000","The main experiment item","yes","NA","ABX_v3.osexp","/home/ubuntu/Desktop/panara","no","no","mono","no","18","no","white","no","yes","768","50","50","/home/ubuntu/Desktop/panara/subject-116.csv","Jazzy James","3.1.3","2.2.1.wav","2.2.3.wav","2.2.3.wav","0","0","0","0","NA","1974","9712","1974","NA","100118","1","2","1024","2","48000","-16","experiment","2.2.1.wav","2.2.3.wav","2.2.3.wav","116","even","433939","436416","435916","435205","423224","NA","432939","437129","989","NA","NA","423222","439103","NA","423222","101110","NA","432939","991","New experiment","NA","0","0","0","yes","1024"
"undefined","undefined","undefined","undefined","black","no","legacy","0","uniform","undefined","undefined","undefined","51","51","103","51","51","NA","51","51","0","0","0","51","51","0","51","0","NA","51","0","Fri 26 Jul 2019 12:33:18 PM PDT","500","1000","The main experiment item","yes","NA","ABX_v3.osexp","/home/ubuntu/Desktop/panara","yes","no","mono","no","18","no","white","no","yes","768","51","51","/home/ubuntu/Desktop/panara/subject-116.csv","Jazzy James","3.1.3","5.2.4.wav","5.2.2.wav","5.2.2.wav","0","0","0","0","NA","3084","9712","3084","NA","100118","1","2","1024","2","48000","-16","experiment","5.2.2.wav","5.2.4.wav","5.2.2.wav","116","even","440264","442725","442225","441516","423224","NA","439264","443435","989","NA","NA","439261","446520","NA","439261","101110","NA","439264","991","New experiment","NA","0","0","0","yes","1024"
"undefined","undefined","undefined","undefined","black","no","legacy","0","uniform","undefined","undefined","undefined","52","52","105","52","52","NA","52","52","0","0","0","52","52","0","52","0","NA","52","0","Fri 26 Jul 2019 12:33:18 PM PDT","500","1000","The main experiment item","yes","NA","ABX_v3.osexp","/home/ubuntu/Desktop/panara","no","no","mono","no","18","no","white","no","yes","768","52","52","/home/ubuntu/Desktop/panara/subject-116.csv","Jazzy James","3.1.3","1.1.1.wav","1.1.1.wav","1.1.3.wav","0","1","0","1","NA","1023","9712","1023","NA","100118","1","2","1024","2","48000","-16","experiment","1.1.1.wav","1.1.3.wav","1.1.1.wav","116","even","447715","450302","449802","449019","423224","NA","446715","451079","989","NA","NA","446713","452102","NA","446713","101110","NA","446715","991","New experiment","NA","0","0","0","yes","1024"
"undefined","undefined","undefined","undefined","black","no","legacy","0","uniform","undefined","undefined","undefined","53","53","107","53","53","NA","53","53","0","0","0","53","53","0","53","0","NA","53","0","Fri 26 Jul 2019 12:33:18 PM PDT","500","1000","The main experiment item","yes","NA","ABX_v3.osexp","/home/ubuntu/Desktop/panara","no","no","mono","no","18","no","white","no","yes","768","53","53","/home/ubuntu/Desktop/panara/subject-116.csv","Jazzy James","3.1.3","1.2.2.wav","1.2.4.wav","1.2.4.wav","0","1","0","1","NA","1415","9712","1415","NA","100118","1","2","1024","2","48000","-16","experiment","1.2.2.wav","1.2.4.wav","1.2.4.wav","116","even","453282","455806","455306","454550","423224","NA","452282","456575","989","NA","NA","452280","457991","NA","452279","101110","NA","452282","991","New experiment","NA","0","0","0","yes","1024"
"undefined","undefined","undefined","undefined","black","no","legacy","0","uniform","undefined","undefined","undefined","54","54","109","54","54","NA","54","54","0","0","0","54","54","0","54","0","NA","54","0","Fri 26 Jul 2019 12:33:18 PM PDT","500","1000","The main experiment item","yes","NA","ABX_v3.osexp","/home/ubuntu/Desktop/panara","yes","no","mono","no","18","no","white","no","yes","768","0","53","/home/ubuntu/Desktop/panara/subject-116.csv","Jazzy James","3.1.3","4.1.5.wav","4.1.3.wav","4.2.3.wav","0","0","0","0","NA","636","9712","636","NA","100118","1","2","1024","2","48000","-16","experiment","4.2.3.wav","4.1.5.wav","4.1.3.wav","116","even","459145","461591","461091","460346","423224","NA","458144","462322","989","NA","NA","458142","462959","458076","458142","101110","NA","458145","991","New experiment","NA","0","0","0","yes","1024"
"undefined","undefined","undefined","undefined","black","no","legacy","0","uniform","undefined","undefined","undefined","55","55","111","55","55","NA","55","55","0","0","0","55","55","0","55","0","NA","55","0","Fri 26 Jul 2019 12:33:18 PM PDT","500","1000","The main experiment item","yes","NA","ABX_v3.osexp","/home/ubuntu/Desktop/panara","yes","no","mono","no","18","no","white","no","yes","768","1","53","/home/ubuntu/Desktop/panara/subject-116.csv","Jazzy James","3.1.3","3.1.4.wav","3.1.2.wav","3.2.2.wav","0","0","0","0","NA","2944","9712","2944","NA","100118","1","2","1024","2","48000","-16","experiment","3.2.2.wav","3.1.4.wav","3.1.2.wav","116","even","464122","466684","466184","465409","423224","NA","463121","467476","989","NA","NA","463119","470421","458076","463119","101110","NA","463122","991","New experiment","NA","0","0","0","yes","1024"
"undefined","undefined","undefined","undefined","black","no","legacy","0","uniform","undefined","undefined","undefined","56","56","113","56","56","NA","56","56","0","0","0","56","56","0","56","0","NA","56","0","Fri 26 Jul 2019 12:33:18 PM PDT","500","1000","The main experiment item","yes","NA","ABX_v3.osexp","/home/ubuntu/Desktop/panara","yes","no","mono","no","18","no","white","no","yes","768","2","53","/home/ubuntu/Desktop/panara/subject-116.csv","Jazzy James","3.1.3","3.2.5.wav","1.2.5.wav","1.2.3.wav","0","0","0","0","NA","738","9712","738","NA","100118","1","2","1024","2","48000","-16","experiment","1.2.3.wav","3.2.5.wav","1.2.5.wav","116","even","471580","474153","473653","472866","423224","NA","470580","474939","989","NA","NA","470577","475678","458076","470577","101110","NA","470580","991","New experiment","NA","0","0","0","yes","1024"
"undefined","undefined","undefined","undefined","black","no","legacy","0","uniform","undefined","undefined","undefined","57","57","115","57","57","NA","57","57","0","0","0","57","57","0","57","0","NA","57","0","Fri 26 Jul 2019 12:33:18 PM PDT","500","1000","The main experiment item","yes","NA","ABX_v3.osexp","/home/ubuntu/Desktop/panara","no","no","mono","no","18","no","white","no","yes","768","3","53","/home/ubuntu/Desktop/panara/subject-116.csv","Jazzy James","3.1.3","1.1.2.wav","1.1.4.wav","3.1.4.wav","0","1","0","1","NA","1128","9712","1128","NA","100118","1","2","1024","2","48000","-16","experiment","1.1.2.wav","3.1.4.wav","1.1.4.wav","116","even","476821","479405","478905","478115","423224","NA","475820","480180","989","NA","NA","475818","481308","458076","475818","101110","NA","475821","991","New experiment","NA","0","0","0","yes","1024"
"undefined","undefined","undefined","undefined","black","no","legacy","0","uniform","undefined","undefined","undefined","58","58","117","58","58","NA","58","58","0","0","0","58","58","0","58","0","NA","58","0","Fri 26 Jul 2019 12:33:18 PM PDT","500","1000","The main experiment item","yes","NA","ABX_v3.osexp","/home/ubuntu/Desktop/panara","yes","no","mono","no","18","no","white","no","yes","768","4","53","/home/ubuntu/Desktop/panara/subject-116.csv","Jazzy James","3.1.3","3.2.3.wav","3.2.1.wav","4.2.1.wav","0","1","0","1","NA","6547","9712","6547","NA","100118","1","2","1024","2","48000","-16","experiment","4.2.1.wav","3.2.3.wav","3.2.1.wav","116","even","482460","484954","484454","483708","423224","NA","481460","485712","989","NA","NA","481457","492260","458076","481457","101110","NA","481460","991","New experiment","NA","0","0","0","yes","1024"
"undefined","undefined","undefined","undefined","black","no","legacy","0","uniform","undefined","undefined","undefined","59","59","119","59","59","NA","59","59","0","0","0","59","59","0","59","0","NA","59","0","Fri 26 Jul 2019 12:33:18 PM PDT","500","1000","The main experiment item","yes","NA","ABX_v3.osexp","/home/ubuntu/Desktop/panara","no","no","mono","no","18","no","white","no","yes","768","5","53","/home/ubuntu/Desktop/panara/subject-116.csv","Jazzy James","3.1.3","1.2.1.wav","1.1.1.wav","1.1.3.wav","0","1","0","1","NA","1613","9712","1613","NA","100118","1","2","1024","2","48000","-16","experiment","1.2.1.wav","1.1.3.wav","1.1.1.wav","116","even","493382","495936","495436","494647","423224","NA","492381","496710","989","NA","NA","492379","498323","458076","492379","101110","NA","492382","991","New experiment","NA","0","0","0","yes","1024"
"undefined","undefined","undefined","undefined","black","no","legacy","0","uniform","undefined","undefined","undefined","60","60","121","60","60","NA","60","60","0","0","0","60","60","0","60","0","NA","60","0","Fri 26 Jul 2019 12:33:18 PM PDT","500","1000","The main experiment item","yes","NA","ABX_v3.osexp","/home/ubuntu/Desktop/panara","no","no","mono","no","18","no","white","no","yes","768","6","53","/home/ubuntu/Desktop/panara/subject-116.csv","Jazzy James","3.1.3","4.1.1.wav","3.1.1.wav","3.1.3.wav","0","1","0","1","NA","3216","9712","3216","NA","100118","1","2","1024","2","48000","-16","experiment","4.1.1.wav","3.1.3.wav","3.1.1.wav","116","even","499499","501971","501471","500726","423224","NA","498499","502707","989","NA","NA","498496","505924","458076","498496","101110","NA","498499","991","New experiment","NA","0","0","0","yes","1024"
"undefined","undefined","undefined","undefined","black","no","legacy","0","uniform","undefined","undefined","undefined","61","61","123","61","61","NA","61","61","0","0","0","61","61","0","61","0","NA","61","0","Fri 26 Jul 2019 12:33:18 PM PDT","500","1000","The main experiment item","yes","NA","ABX_v3.osexp","/home/ubuntu/Desktop/panara","yes","no","mono","no","18","no","white","no","yes","768","7","53","/home/ubuntu/Desktop/panara/subject-116.csv","Jazzy James","3.1.3","2.1.3.wav","2.2.3.wav","2.2.1.wav","0","1","0","1","NA","1183","9712","1183","NA","100118","1","2","1024","2","48000","-16","experiment","2.2.1.wav","2.1.3.wav","2.2.3.wav","116","even","507115","509609","509109","508346","423224","NA","506115","510324","989","NA","NA","506113","511507","458076","506112","101110","NA","506115","991","New experiment","NA","0","0","0","yes","1024"
"undefined","undefined","undefined","undefined","black","no","legacy","0","uniform","undefined","undefined","undefined","62","62","125","62","62","NA","62","62","0","0","0","62","62","0","62","0","NA","62","0","Fri 26 Jul 2019 12:33:18 PM PDT","500","1000","The main experiment item","yes","NA","ABX_v3.osexp","/home/ubuntu/Desktop/panara","yes","no","mono","no","18","no","white","no","yes","768","8","53","/home/ubuntu/Desktop/panara/subject-116.csv","Jazzy James","3.1.3","2.2.4.wav","2.2.2.wav","2.1.2.wav","0","1","0","1","NA","2189","9712","2189","NA","100118","1","2","1024","2","48000","-16","experiment","2.1.2.wav","2.2.4.wav","2.2.2.wav","116","even","512688","515108","514608","513897","423224","NA","511687","515852","989","NA","NA","511685","518042","458076","511685","101110","NA","511688","991","New experiment","NA","0","0","0","yes","1024"
"undefined","undefined","undefined","undefined","black","no","legacy","0","uniform","undefined","undefined","undefined","63","63","127","63","63","NA","63","63","0","0","0","63","63","0","63","0","NA","63","0","Fri 26 Jul 2019 12:33:18 PM PDT","500","1000","The main experiment item","yes","NA","ABX_v3.osexp","/home/ubuntu/Desktop/panara","yes","no","mono","no","18","no","white","no","yes","768","9","53","/home/ubuntu/Desktop/panara/subject-116.csv","Jazzy James","3.1.3","4.1.4.wav","4.2.4.wav","4.2.2.wav","0","1","0","1","NA","1405","9712","1405","NA","100118","1","2","1024","2","48000","-16","experiment","4.2.2.wav","4.1.4.wav","4.2.4.wav","116","even","519223","521674","521174","520447","423224","NA","518223","522413","989","NA","NA","518220","523818","458076","518220","101110","NA","518223","991","New experiment","NA","0","0","0","yes","1024"
"undefined","undefined","undefined","undefined","black","no","legacy","0","uniform","undefined","undefined","undefined","64","64","129","64","64","NA","64","64","0","0","0","64","64","0","64","0","NA","64","0","Fri 26 Jul 2019 12:33:18 PM PDT","500","1000","The main experiment item","yes","NA","ABX_v3.osexp","/home/ubuntu/Desktop/panara","no","no","mono","no","18","no","white","no","yes","768","10","53","/home/ubuntu/Desktop/panara/subject-116.csv","Jazzy James","3.1.3","3.2.3.wav","3.2.5.wav","3.1.5.wav","0","0","0","0","NA","1710","9712","1710","NA","100118","1","2","1024","2","48000","-16","experiment","3.2.3.wav","3.1.5.wav","3.2.5.wav","116","even","524999","527522","527022","526248","423224","NA","523999","528314","989","NA","NA","523997","530025","458076","523997","101110","NA","523999","991","New experiment","NA","0","0","0","yes","1024"
"undefined","undefined","undefined","undefined","black","no","legacy","0","uniform","undefined","undefined","undefined","65","65","131","65","65","NA","65","65","0","0","0","65","65","0","65","0","NA","65","0","Fri 26 Jul 2019 12:33:18 PM PDT","500","1000","The main experiment item","yes","NA","ABX_v3.osexp","/home/ubuntu/Desktop/panara","yes","no","mono","no","18","no","white","no","yes","768","11","53","/home/ubuntu/Desktop/panara/subject-116.csv","Jazzy James","3.1.3","1.1.5.wav","1.1.3.wav","3.1.3.wav","0","1","0","1","NA","1157","9712","1157","NA","100118","1","2","1024","2","48000","-16","experiment","3.1.3.wav","1.1.5.wav","1.1.3.wav","116","even","531196","533748","533248","532478","423224","NA","530195","534492","989","NA","NA","530193","535650","458076","530193","101110","NA","530196","991","New experiment","NA","0","0","0","yes","1024"
"undefined","undefined","undefined","undefined","black","no","legacy","0","uniform","undefined","undefined","undefined","66","66","133","66","66","NA","66","66","0","0","0","66","66","0","66","0","NA","66","0","Fri 26 Jul 2019 12:33:18 PM PDT","500","1000","The main experiment item","yes","NA","ABX_v3.osexp","/home/ubuntu/Desktop/panara","no","no","mono","no","18","no","white","no","yes","768","12","53","/home/ubuntu/Desktop/panara/subject-116.csv","Jazzy James","3.1.3","3.2.2.wav","4.2.2.wav","4.2.4.wav","0","0","0","0","NA","1323","9712","1323","NA","100118","1","2","1024","2","48000","-16","experiment","3.2.2.wav","4.2.4.wav","4.2.2.wav","116","even","536859","539461","538961","538130","423224","NA","535858","540222","989","NA","NA","535856","541545","458076","535856","101110","NA","535859","991","New experiment","NA","0","0","0","yes","1024"
"undefined","undefined","undefined","undefined","black","no","legacy","0","uniform","undefined","undefined","undefined","67","67","135","67","67","NA","67","67","0","0","0","67","67","0","67","0","NA","67","0","Fri 26 Jul 2019 12:33:18 PM PDT","500","1000","The main experiment item","yes","NA","ABX_v3.osexp","/home/ubuntu/Desktop/panara","no","no","mono","no","18","no","white","no","yes","768","13","53","/home/ubuntu/Desktop/panara/subject-116.csv","Jazzy James","3.1.3","4.1.2.wav","4.1.4.wav","2.1.4.wav","0","1","0","1","NA","1047","9712","1047","NA","100118","1","2","1024","2","48000","-16","experiment","4.1.2.wav","2.1.4.wav","4.1.4.wav","116","even","542683","545143","544643","543919","423224","NA","541682","545897","989","NA","NA","541679","546945","458076","541679","101110","NA","541683","991","New experiment","NA","0","0","0","yes","1024"
"undefined","undefined","undefined","undefined","black","no","legacy","0","uniform","undefined","undefined","undefined","68","68","137","68","68","NA","68","68","0","0","0","68","68","0","68","0","NA","68","0","Fri 26 Jul 2019 12:33:18 PM PDT","500","1000","The main experiment item","yes","NA","ABX_v3.osexp","/home/ubuntu/Desktop/panara","yes","no","mono","no","18","no","white","no","yes","768","14","53","/home/ubuntu/Desktop/panara/subject-116.csv","Jazzy James","3.1.3","4.2.3.wav","3.2.3.wav","3.2.1.wav","0","0","0","0","NA","3413","9712","3413","NA","100118","1","2","1024","2","48000","-16","experiment","3.2.1.wav","4.2.3.wav","3.2.3.wav","116","even","548108","550618","550118","549352","423224","NA","547108","551371","989","NA","NA","547105","554784","458076","547105","101110","NA","547108","991","New experiment","NA","0","0","0","yes","1024"
"undefined","undefined","undefined","undefined","black","no","legacy","0","uniform","undefined","undefined","undefined","69","69","139","69","69","NA","69","69","0","0","0","69","69","0","69","0","NA","69","0","Fri 26 Jul 2019 12:33:18 PM PDT","500","1000","The main experiment item","yes","NA","ABX_v3.osexp","/home/ubuntu/Desktop/panara","no","no","mono","no","18","no","white","no","yes","768","15","53","/home/ubuntu/Desktop/panara/subject-116.csv","Jazzy James","3.1.3","1.1.2.wav","3.1.2.wav","3.1.4.wav","0","0","0","0","NA","700","9712","700","NA","100118","1","2","1024","2","48000","-16","experiment","1.1.2.wav","3.1.4.wav","3.1.2.wav","116","even","555912","558470","557970","557189","423224","NA","554911","559251","989","NA","NA","554908","559952","458076","554908","101110","NA","554912","991","New experiment","NA","0","0","0","yes","1024"
"undefined","undefined","undefined","undefined","black","no","legacy","0","uniform","undefined","undefined","undefined","70","70","141","70","70","NA","70","70","0","0","0","70","70","0","70","0","NA","70","0","Fri 26 Jul 2019 12:33:18 PM PDT","500","1000","The main experiment item","yes","NA","ABX_v3.osexp","/home/ubuntu/Desktop/panara","yes","no","mono","no","18","no","white","no","yes","768","16","53","/home/ubuntu/Desktop/panara/subject-116.csv","Jazzy James","3.1.3","3.2.4.wav","1.2.4.wav","1.2.2.wav","0","0","0","0","NA","496","9712","496","NA","100118","1","2","1024","2","48000","-16","experiment","1.2.2.wav","3.2.4.wav","1.2.4.wav","116","even","561099","563609","563109","562357","423224","NA","560099","564391","989","NA","NA","560096","564888","458076","560096","101110","NA","560099","991","New experiment","NA","0","0","0","yes","1024"
"undefined","undefined","undefined","undefined","black","no","legacy","0","uniform","undefined","undefined","undefined","71","71","143","71","71","NA","71","71","0","0","0","71","71","0","71","0","NA","71","0","Fri 26 Jul 2019 12:33:18 PM PDT","500","1000","The main experiment item","yes","NA","ABX_v3.osexp","/home/ubuntu/Desktop/panara","yes","no","mono","no","18","no","white","no","yes","768","17","53","/home/ubuntu/Desktop/panara/subject-116.csv","Jazzy James","3.1.3","4.1.4.wav","2.1.4.wav","2.1.2.wav","0","0","0","0","NA","851","9712","851","NA","100118","1","2","1024","2","48000","-16","experiment","2.1.2.wav","4.1.4.wav","2.1.4.wav","116","even","566054","568529","568029","567279","423224","NA","565054","569283","989","NA","NA","565051","570134","458076","565051","101110","NA","565054","991","New experiment","NA","0","0","0","yes","1024"
"undefined","undefined","undefined","undefined","black","no","legacy","0","uniform","undefined","undefined","undefined","72","72","145","72","72","NA","72","72","0","0","0","72","72","0","72","0","NA","72","0","Fri 26 Jul 2019 12:33:18 PM PDT","500","1000","The main experiment item","yes","NA","ABX_v3.osexp","/home/ubuntu/Desktop/panara","no","no","mono","no","18","no","white","no","yes","768","18","53","/home/ubuntu/Desktop/panara/subject-116.csv","Jazzy James","3.1.3","4.2.1.wav","4.2.3.wav","4.1.3.wav","0","1","0","1","NA","1885","9712","1885","NA","100118","1","2","1024","2","48000","-16","experiment","4.2.1.wav","4.1.3.wav","4.2.3.wav","116","even","571298","573763","573263","572510","423224","NA","570298","574488","989","NA","NA","570295","576374","458076","570295","101110","NA","570298","991","New experiment","NA","0","0","0","yes","1024"
"undefined","undefined","undefined","undefined","black","no","legacy","0","uniform","undefined","undefined","undefined","73","73","147","73","73","NA","73","73","0","0","0","73","73","0","73","0","NA","73","0","Fri 26 Jul 2019 12:33:18 PM PDT","500","1000","The main experiment item","yes","NA","ABX_v3.osexp","/home/ubuntu/Desktop/panara","no","no","mono","no","18","no","white","no","yes","768","19","53","/home/ubuntu/Desktop/panara/subject-116.csv","Jazzy James","3.1.3","4.2.3.wav","4.2.5.wav","4.1.5.wav","0","1","0","1","NA","1972","9712","1972","NA","100118","1","2","1024","2","48000","-16","experiment","4.2.3.wav","4.1.5.wav","4.2.5.wav","116","even","577542","579999","579499","578776","423224","NA","576542","580754","989","NA","NA","576539","582726","458076","576539","101110","NA","576542","991","New experiment","NA","0","0","0","yes","1024"
"undefined","undefined","undefined","undefined","black","no","legacy","0","uniform","undefined","undefined","undefined","74","74","149","74","74","NA","74","74","0","0","0","74","74","0","74","0","NA","74","0","Fri 26 Jul 2019 12:33:18 PM PDT","500","1000","The main experiment item","yes","NA","ABX_v3.osexp","/home/ubuntu/Desktop/panara","no","no","mono","no","18","no","white","no","yes","768","20","53","/home/ubuntu/Desktop/panara/subject-116.csv","Jazzy James","3.1.3","2.1.2.wav","4.1.2.wav","4.1.4.wav","0","0","0","0","NA","607","9712","607","NA","100118","1","2","1024","2","48000","-16","experiment","2.1.2.wav","4.1.4.wav","4.1.2.wav","116","even","583880","586370","585870","585119","423224","NA","582880","587094","989","NA","NA","582878","587702","458076","582878","101110","NA","582880","991","New experiment","NA","0","0","0","yes","1024"
"undefined","undefined","undefined","undefined","black","no","legacy","0","uniform","undefined","undefined","undefined","75","75","151","75","75","NA","75","75","0","0","0","75","75","0","75","0","NA","75","0","Fri 26 Jul 2019 12:33:18 PM PDT","500","1000","The main experiment item","yes","NA","ABX_v3.osexp","/home/ubuntu/Desktop/panara","no","no","mono","no","18","no","white","no","yes","768","21","53","/home/ubuntu/Desktop/panara/subject-116.csv","Jazzy James","3.1.3","2.2.2.wav","4.2.2.wav","4.2.4.wav","0","0","0","0","NA","861","9712","861","NA","100118","1","2","1024","2","48000","-16","experiment","2.2.2.wav","4.2.4.wav","4.2.2.wav","116","even","588885","591326","590826","590110","423224","NA","587885","592080","989","NA","NA","587882","592942","458076","587882","101110","NA","587885","991","New experiment","NA","0","0","0","yes","1024"
"undefined","undefined","undefined","undefined","black","no","legacy","0","uniform","undefined","undefined","undefined","76","76","153","76","76","NA","76","76","0","0","0","76","76","0","76","0","NA","76","0","Fri 26 Jul 2019 12:33:18 PM PDT","500","1000","The main experiment item","yes","NA","ABX_v3.osexp","/home/ubuntu/Desktop/panara","no","no","mono","no","18","no","white","no","yes","768","22","53","/home/ubuntu/Desktop/panara/subject-116.csv","Jazzy James","3.1.3","2.2.3.wav","4.2.3.wav","4.2.5.wav","0","0","0","0","NA","430","9712","430","NA","100118","1","2","1024","2","48000","-16","experiment","2.2.3.wav","4.2.5.wav","4.2.3.wav","116","even","594139","596609","596109","595358","423224","NA","593139","597327","989","NA","NA","593136","597757","458076","593136","101110","NA","593139","991","New experiment","NA","0","0","0","yes","1024"
"undefined","undefined","undefined","undefined","black","no","legacy","0","uniform","undefined","undefined","undefined","77","77","155","77","77","NA","77","77","0","0","0","77","77","0","77","0","NA","77","0","Fri 26 Jul 2019 12:33:18 PM PDT","500","1000","The main experiment item","yes","NA","ABX_v3.osexp","/home/ubuntu/Desktop/panara","no","no","mono","no","18","no","white","no","yes","768","23","53","/home/ubuntu/Desktop/panara/subject-116.csv","Jazzy James","3.1.3","1.1.2.wav","1.2.2.wav","1.2.4.wav","0","1","0","1","NA","2132","9712","2132","NA","100118","1","2","1024","2","48000","-16","experiment","1.1.2.wav","1.2.4.wav","1.2.2.wav","116","even","598924","601495","600995","600215","423224","NA","597924","602247","989","NA","NA","597921","604380","458076","597921","101110","NA","597924","991","New experiment","NA","0","0","0","yes","1024"
"undefined","undefined","undefined","undefined","black","no","legacy","0","uniform","undefined","undefined","undefined","78","78","157","78","78","NA","78","78","0","0","0","78","78","0","78","0","NA","78","0","Fri 26 Jul 2019 12:33:18 PM PDT","500","1000","The main experiment item","yes","NA","ABX_v3.osexp","/home/ubuntu/Desktop/panara","no","no","mono","no","18","no","white","no","yes","768","24","53","/home/ubuntu/Desktop/panara/subject-116.csv","Jazzy James","3.1.3","1.2.2.wav","3.2.2.wav","3.2.4.wav","0","0","0","0","NA","396","9712","396","NA","100118","1","2","1024","2","48000","-16","experiment","1.2.2.wav","3.2.4.wav","3.2.2.wav","116","even","605552","608114","607614","606832","423224","NA","604552","608871","989","NA","NA","604550","609268","458076","604549","101110","NA","604552","991","New experiment","NA","0","0","0","yes","1024"
"undefined","undefined","undefined","undefined","black","no","legacy","0","uniform","undefined","undefined","undefined","79","79","159","79","79","NA","79","79","0","0","0","79","79","0","79","0","NA","79","0","Fri 26 Jul 2019 12:33:18 PM PDT","500","1000","The main experiment item","yes","NA","ABX_v3.osexp","/home/ubuntu/Desktop/panara","no","no","mono","no","18","no","white","no","yes","768","25","53","/home/ubuntu/Desktop/panara/subject-116.csv","Jazzy James","3.1.3","3.2.3.wav","3.1.3.wav","3.1.5.wav","0","0","0","0","NA","1103","9712","1103","NA","100118","1","2","1024","2","48000","-16","experiment","3.2.3.wav","3.1.5.wav","3.1.3.wav","116","even","610442","612951","612451","611697","423224","NA","609441","613725","989","NA","NA","609439","614828","458076","609438","101110","NA","609442","991","New experiment","NA","0","0","0","yes","1024"
"undefined","undefined","undefined","undefined","black","no","legacy","0","uniform","undefined","undefined","undefined","80","80","161","80","80","NA","80","80","0","0","0","80","80","0","80","0","NA","80","0","Fri 26 Jul 2019 12:33:18 PM PDT","500","1000","The main experiment item","yes","NA","ABX_v3.osexp","/home/ubuntu/Desktop/panara","no","no","mono","no","18","no","white","no","yes","768","26","53","/home/ubuntu/Desktop/panara/subject-116.csv","Jazzy James","3.1.3","1.2.1.wav","2.2.1.wav","2.2.3.wav","0","0","0","0","NA","1402","9712","1402","NA","100118","1","2","1024","2","48000","-16","experiment","1.2.1.wav","2.2.3.wav","2.2.1.wav","116","even","616011","618517","618017","617295","423224","NA","615010","619241","989","NA","NA","615008","620644","458076","615008","101110","NA","615011","991","New experiment","NA","0","0","0","yes","1024"
"undefined","undefined","undefined","undefined","black","no","legacy","0","uniform","undefined","undefined","undefined","81","81","163","81","81","NA","81","81","0","0","0","81","81","0","81","0","NA","81","0","Fri 26 Jul 2019 12:33:18 PM PDT","500","1000","The main experiment item","yes","NA","ABX_v3.osexp","/home/ubuntu/Desktop/panara","no","no","mono","no","18","no","white","no","yes","768","27","53","/home/ubuntu/Desktop/panara/subject-116.csv","Jazzy James","3.1.3","3.1.1.wav","3.1.3.wav","3.2.3.wav","0","0","0","0","NA","2045","9712","2045","NA","100118","1","2","1024","2","48000","-16","experiment","3.1.1.wav","3.2.3.wav","3.1.3.wav","116","even","621810","624306","623806","623062","423224","NA","620810","625061","989","NA","NA","620807","627106","458076","620807","101110","NA","620810","991","New experiment","NA","0","0","0","yes","1024"
"undefined","undefined","undefined","undefined","black","no","legacy","0","uniform","undefined","undefined","undefined","82","82","165","82","82","NA","82","82","0","0","0","82","82","0","82","0","NA","82","0","Fri 26 Jul 2019 12:33:18 PM PDT","500","1000","The main experiment item","yes","NA","ABX_v3.osexp","/home/ubuntu/Desktop/panara","yes","no","mono","no","18","no","white","no","yes","768","28","53","/home/ubuntu/Desktop/panara/subject-116.csv","Jazzy James","3.1.3","4.1.3.wav","4.1.1.wav","2.1.1.wav","0","1","0","1","NA","822","9712","822","NA","100118","1","2","1024","2","48000","-16","experiment","2.1.1.wav","4.1.3.wav","4.1.1.wav","116","even","628258","630704","630204","629483","423224","NA","627258","631459","989","NA","NA","627255","632282","458076","627255","101110","NA","627258","991","New experiment","NA","0","0","0","yes","1024"
"undefined","undefined","undefined","undefined","black","no","legacy","0","uniform","undefined","undefined","undefined","83","83","167","83","83","NA","83","83","0","0","0","83","83","0","83","0","NA","83","0","Fri 26 Jul 2019 12:33:18 PM PDT","500","1000","The main experiment item","yes","NA","ABX_v3.osexp","/home/ubuntu/Desktop/panara","yes","no","mono","no","18","no","white","no","yes","768","29","53","/home/ubuntu/Desktop/panara/subject-116.csv","Jazzy James","3.1.3","3.2.5.wav","3.2.3.wav","4.2.3.wav","0","0","0","0","NA","1544","9712","1544","NA","100118","1","2","1024","2","48000","-16","experiment","4.2.3.wav","3.2.5.wav","3.2.3.wav","116","even","633451","635981","635481","634729","423224","NA","632451","636729","989","NA","NA","632448","638274","458076","632448","101110","NA","632451","991","New experiment","NA","0","0","0","yes","1024"
"undefined","undefined","undefined","undefined","black","no","legacy","0","uniform","undefined","undefined","undefined","84","84","169","84","84","NA","84","84","0","0","0","84","84","0","84","0","NA","84","0","Fri 26 Jul 2019 12:33:18 PM PDT","500","1000","The main experiment item","yes","NA","ABX_v3.osexp","/home/ubuntu/Desktop/panara","no","no","mono","no","18","no","white","no","yes","768","30","53","/home/ubuntu/Desktop/panara/subject-116.csv","Jazzy James","3.1.3","1.2.1.wav","1.2.3.wav","2.2.3.wav","0","1","0","1","NA","1744","9712","1744","NA","100118","1","2","1024","2","48000","-16","experiment","1.2.1.wav","2.2.3.wav","1.2.3.wav","116","even","639437","642006","641506","640724","423224","NA","638437","642729","989","NA","NA","638434","644474","458076","638434","101110","NA","638437","991","New experiment","NA","0","0","0","yes","1024"
"undefined","undefined","undefined","undefined","black","no","legacy","0","uniform","undefined","undefined","undefined","85","85","171","85","85","NA","85","85","0","0","0","85","85","0","85","0","NA","85","0","Fri 26 Jul 2019 12:33:18 PM PDT","500","1000","The main experiment item","yes","NA","ABX_v3.osexp","/home/ubuntu/Desktop/panara","no","no","mono","no","18","no","white","no","yes","768","31","53","/home/ubuntu/Desktop/panara/subject-116.csv","Jazzy James","3.1.3","4.1.3.wav","4.1.5.wav","4.2.5.wav","0","1","0","1","NA","2683","9712","2683","NA","100118","1","2","1024","2","48000","-16","experiment","4.1.3.wav","4.2.5.wav","4.1.5.wav","116","even","645659","648105","647605","646889","423224","NA","644659","648830","989","NA","NA","644656","651514","458076","644656","101110","NA","644659","991","New experiment","NA","0","0","0","yes","1024"
"undefined","undefined","undefined","undefined","black","no","legacy","0","uniform","undefined","undefined","undefined","86","86","173","86","86","NA","86","86","0","0","0","86","86","0","86","0","NA","86","0","Fri 26 Jul 2019 12:33:18 PM PDT","500","1000","The main experiment item","yes","NA","ABX_v3.osexp","/home/ubuntu/Desktop/panara","no","no","mono","no","18","no","white","no","yes","768","32","53","/home/ubuntu/Desktop/panara/subject-116.csv","Jazzy James","3.1.3","2.1.3.wav","4.1.3.wav","4.1.5.wav","0","0","0","0","NA","443","9712","443","NA","100118","1","2","1024","2","48000","-16","experiment","2.1.3.wav","4.1.5.wav","4.1.3.wav","116","even","652676","655145","654645","653921","423224","NA","651676","655869","989","NA","NA","651673","656312","458076","651673","101110","NA","651676","991","New experiment","NA","0","0","0","yes","1024"
"undefined","undefined","undefined","undefined","black","no","legacy","0","uniform","undefined","undefined","undefined","87","87","175","87","87","NA","87","87","0","0","0","87","87","0","87","0","NA","87","0","Fri 26 Jul 2019 12:33:18 PM PDT","500","1000","The main experiment item","yes","NA","ABX_v3.osexp","/home/ubuntu/Desktop/panara","no","no","mono","no","18","no","white","no","yes","768","33","53","/home/ubuntu/Desktop/panara/subject-116.csv","Jazzy James","3.1.3","4.1.3.wav","3.1.3.wav","3.1.5.wav","0","0","0","0","NA","673","9712","673","NA","100118","1","2","1024","2","48000","-16","experiment","4.1.3.wav","3.1.5.wav","3.1.3.wav","116","even","657476","659936","659436","658684","423224","NA","656476","660718","989","NA","NA","656474","661392","458076","656473","101110","NA","656476","991","New experiment","NA","0","0","0","yes","1024"
"undefined","undefined","undefined","undefined","black","no","legacy","0","uniform","undefined","undefined","undefined","88","88","177","88","88","NA","88","88","0","0","0","88","88","0","88","0","NA","88","0","Fri 26 Jul 2019 12:33:18 PM PDT","500","1000","The main experiment item","yes","NA","ABX_v3.osexp","/home/ubuntu/Desktop/panara","no","no","mono","no","18","no","white","no","yes","768","34","53","/home/ubuntu/Desktop/panara/subject-116.csv","Jazzy James","3.1.3","1.2.3.wav","1.2.5.wav","1.1.5.wav","0","1","0","1","NA","1176","9712","1176","NA","100118","1","2","1024","2","48000","-16","experiment","1.2.3.wav","1.1.5.wav","1.2.5.wav","116","even","662561","665127","664627","663848","423224","NA","661561","665911","989","NA","NA","661558","667088","458076","661558","101110","NA","661561","991","New experiment","NA","0","0","0","yes","1024"
"undefined","undefined","undefined","undefined","black","no","legacy","0","uniform","undefined","undefined","undefined","89","89","179","89","89","NA","89","89","0","0","0","89","89","0","89","0","NA","89","0","Fri 26 Jul 2019 12:33:18 PM PDT","500","1000","The main experiment item","yes","NA","ABX_v3.osexp","/home/ubuntu/Desktop/panara","no","no","mono","no","18","no","white","no","yes","768","35","53","/home/ubuntu/Desktop/panara/subject-116.csv","Jazzy James","3.1.3","4.1.2.wav","4.1.4.wav","3.1.4.wav","0","0","0","0","NA","1493","9712","1493","NA","100118","1","2","1024","2","48000","-16","experiment","4.1.2.wav","3.1.4.wav","4.1.4.wav","116","even","668264","670737","670237","669521","423224","NA","667263","671514","989","NA","NA","667261","673007","458076","667261","101110","NA","667264","991","New experiment","NA","0","0","0","yes","1024"
"undefined","undefined","undefined","undefined","black","no","legacy","0","uniform","undefined","undefined","undefined","90","90","181","90","90","NA","90","90","0","0","0","90","90","0","90","0","NA","90","0","Fri 26 Jul 2019 12:33:18 PM PDT","500","1000","The main experiment item","yes","NA","ABX_v3.osexp","/home/ubuntu/Desktop/panara","no","no","mono","no","18","no","white","no","yes","768","36","53","/home/ubuntu/Desktop/panara/subject-116.csv","Jazzy James","3.1.3","3.1.2.wav","1.1.2.wav","1.1.4.wav","0","0","0","0","NA","305","9712","305","NA","100118","1","2","1024","2","48000","-16","experiment","3.1.2.wav","1.1.4.wav","1.1.2.wav","116","even","674194","676774","676274","675474","423224","NA","673193","677542","989","NA","NA","673190","677848","458076","673190","101110","NA","673194","991","New experiment","NA","0","0","0","yes","1024"
"undefined","undefined","undefined","undefined","black","no","legacy","0","uniform","undefined","undefined","undefined","91","91","183","91","91","NA","91","91","0","0","0","91","91","0","91","0","NA","91","0","Fri 26 Jul 2019 12:33:18 PM PDT","500","1000","The main experiment item","yes","NA","ABX_v3.osexp","/home/ubuntu/Desktop/panara","yes","no","mono","no","18","no","white","no","yes","768","37","53","/home/ubuntu/Desktop/panara/subject-116.csv","Jazzy James","3.1.3","3.2.5.wav","3.1.5.wav","3.1.3.wav","0","1","0","1","NA","4499","9712","4499","NA","100118","1","2","1024","2","48000","-16","experiment","3.1.3.wav","3.2.5.wav","3.1.5.wav","116","even","679020","681588","681088","680317","423224","NA","678020","682356","989","NA","NA","678017","686855","458076","678017","101110","NA","678020","991","New experiment","NA","0","0","0","yes","1024"
"undefined","undefined","undefined","undefined","black","no","legacy","0","uniform","undefined","undefined","undefined","92","92","185","92","92","NA","92","92","0","0","0","92","92","0","92","0","NA","92","0","Fri 26 Jul 2019 12:33:18 PM PDT","500","1000","The main experiment item","yes","NA","ABX_v3.osexp","/home/ubuntu/Desktop/panara","yes","no","mono","no","18","no","white","no","yes","768","38","53","/home/ubuntu/Desktop/panara/subject-116.csv","Jazzy James","3.1.3","1.2.5.wav","1.2.3.wav","3.2.3.wav","0","0","0","0","NA","5782","9712","5782","NA","100118","1","2","1024","2","48000","-16","experiment","3.2.3.wav","1.2.5.wav","1.2.3.wav","116","even","688021","690576","690076","689298","423224","NA","687021","691343","989","NA","NA","687018","697126","458076","687018","101110","NA","687021","991","New experiment","NA","0","0","0","yes","1024"
"undefined","undefined","undefined","undefined","black","no","legacy","0","uniform","undefined","undefined","undefined","93","93","187","93","93","NA","93","93","0","0","0","93","93","0","93","0","NA","93","0","Fri 26 Jul 2019 12:33:18 PM PDT","500","1000","The main experiment item","yes","NA","ABX_v3.osexp","/home/ubuntu/Desktop/panara","no","no","mono","no","18","no","white","no","yes","768","39","53","/home/ubuntu/Desktop/panara/subject-116.csv","Jazzy James","3.1.3","4.1.2.wav","3.1.2.wav","3.1.4.wav","0","0","0","0","NA","1229","9712","1229","NA","100118","1","2","1024","2","48000","-16","experiment","4.1.2.wav","3.1.4.wav","3.1.2.wav","116","even","698306","700800","700300","699520","423224","NA","697306","701584","989","NA","NA","697304","702814","458076","697304","101110","NA","697306","991","New experiment","NA","0","0","0","yes","1024"
"undefined","undefined","undefined","undefined","black","no","legacy","0","uniform","undefined","undefined","undefined","94","94","189","94","94","NA","94","94","0","0","0","94","94","0","94","0","NA","94","0","Fri 26 Jul 2019 12:33:18 PM PDT","500","1000","The main experiment item","yes","NA","ABX_v3.osexp","/home/ubuntu/Desktop/panara","no","no","mono","no","18","no","white","no","yes","768","40","53","/home/ubuntu/Desktop/panara/subject-116.csv","Jazzy James","3.1.3","3.1.1.wav","3.1.3.wav","1.1.3.wav","0","1","0","1","NA","712","9712","712","NA","100118","1","2","1024","2","48000","-16","experiment","3.1.1.wav","1.1.3.wav","3.1.3.wav","116","even","703979","706483","705983","705232","423224","NA","702979","707292","989","NA","NA","702977","708005","458076","702977","101110","NA","702979","991","New experiment","NA","0","0","0","yes","1024"
"undefined","undefined","undefined","undefined","black","no","legacy","0","uniform","undefined","undefined","undefined","95","95","191","95","95","NA","95","95","0","0","0","95","95","0","95","0","NA","95","0","Fri 26 Jul 2019 12:33:18 PM PDT","500","1000","The main experiment item","yes","NA","ABX_v3.osexp","/home/ubuntu/Desktop/panara","no","no","mono","no","18","no","white","no","yes","768","41","53","/home/ubuntu/Desktop/panara/subject-116.csv","Jazzy James","3.1.3","2.1.2.wav","1.1.2.wav","1.1.4.wav","0","1","0","1","NA","3555","9712","3555","NA","100118","1","2","1024","2","48000","-16","experiment","2.1.2.wav","1.1.4.wav","1.1.2.wav","116","even","709186","711737","711237","710437","423224","NA","708185","712521","989","NA","NA","708182","716076","458076","708182","101110","NA","708186","991","New experiment","NA","0","0","0","yes","1024"
"undefined","undefined","undefined","undefined","black","no","legacy","0","uniform","undefined","undefined","undefined","96","96","193","96","96","NA","96","96","0","0","0","96","96","0","96","0","NA","96","0","Fri 26 Jul 2019 12:33:18 PM PDT","500","1000","The main experiment item","yes","NA","ABX_v3.osexp","/home/ubuntu/Desktop/panara","no","no","mono","no","18","no","white","no","yes","768","42","53","/home/ubuntu/Desktop/panara/subject-116.csv","Jazzy James","3.1.3","3.2.3.wav","4.2.3.wav","4.2.5.wav","0","1","0","1","NA","1109","9712","1109","NA","100118","1","2","1024","2","48000","-16","experiment","3.2.3.wav","4.2.5.wav","4.2.3.wav","116","even","717221","719715","719215","718473","423224","NA","716221","720439","989","NA","NA","716218","721549","458076","716218","101110","NA","716221","991","New experiment","NA","0","0","0","yes","1024"
"undefined","undefined","undefined","undefined","black","no","legacy","0","uniform","undefined","undefined","undefined","97","97","195","97","97","NA","97","97","0","0","0","97","97","0","97","0","NA","97","0","Fri 26 Jul 2019 12:33:18 PM PDT","500","1000","The main experiment item","yes","NA","ABX_v3.osexp","/home/ubuntu/Desktop/panara","yes","no","mono","no","18","no","white","no","yes","768","43","53","/home/ubuntu/Desktop/panara/subject-116.csv","Jazzy James","3.1.3","1.1.5.wav","1.1.3.wav","1.2.3.wav","0","0","0","0","NA","1197","9712","1197","NA","100118","1","2","1024","2","48000","-16","experiment","1.2.3.wav","1.1.5.wav","1.1.3.wav","116","even","722732","725305","724805","724025","423224","NA","721732","726086","989","NA","NA","721729","727283","458076","721729","101110","NA","721732","991","New experiment","NA","0","0","0","yes","1024"
"undefined","undefined","undefined","undefined","black","no","legacy","0","uniform","undefined","undefined","undefined","98","98","197","98","98","NA","98","98","0","0","0","98","98","0","98","0","NA","98","0","Fri 26 Jul 2019 12:33:18 PM PDT","500","1000","The main experiment item","yes","NA","ABX_v3.osexp","/home/ubuntu/Desktop/panara","yes","no","mono","no","18","no","white","no","yes","768","44","53","/home/ubuntu/Desktop/panara/subject-116.csv","Jazzy James","3.1.3","2.1.4.wav","2.1.2.wav","1.1.2.wav","0","1","0","1","NA","1787","9712","1787","NA","100118","1","2","1024","2","48000","-16","experiment","1.1.2.wav","2.1.4.wav","2.1.2.wav","116","even","728440","730936","730436","729683","423224","NA","727440","731720","989","NA","NA","727438","733508","458076","727438","101110","NA","727440","991","New experiment","NA","0","0","0","yes","1024"
"undefined","undefined","undefined","undefined","black","no","legacy","0","uniform","undefined","undefined","undefined","99","99","199","99","99","NA","99","99","0","0","0","99","99","0","99","0","NA","99","0","Fri 26 Jul 2019 12:33:18 PM PDT","500","1000","The main experiment item","yes","NA","ABX_v3.osexp","/home/ubuntu/Desktop/panara","no","no","mono","no","18","no","white","no","yes","768","45","53","/home/ubuntu/Desktop/panara/subject-116.csv","Jazzy James","3.1.3","4.2.1.wav","4.2.3.wav","3.2.3.wav","0","1","0","1","NA","2180","9712","2180","NA","100118","1","2","1024","2","48000","-16","experiment","4.2.1.wav","3.2.3.wav","4.2.3.wav","116","even","734711","737222","736722","735973","423224","NA","733711","737990","989","NA","NA","733709","740171","458076","733709","101110","NA","733711","991","New experiment","NA","0","0","0","yes","1024"
"undefined","undefined","undefined","undefined","black","no","legacy","0","uniform","undefined","undefined","undefined","100","100","201","100","100","NA","100","100","0","0","0","100","100","0","100","0","NA","100","0","Fri 26 Jul 2019 12:33:18 PM PDT","500","1000","The main experiment item","yes","NA","ABX_v3.osexp","/home/ubuntu/Desktop/panara","yes","no","mono","no","18","no","white","no","yes","768","46","53","/home/ubuntu/Desktop/panara/subject-116.csv","Jazzy James","3.1.3","4.1.5.wav","4.1.3.wav","3.1.3.wav","0","0","1","0","NA","1642","15468","1642","NA","100118","1","2","1024","2","48000","-16","experiment","3.1.3.wav","4.1.5.wav","4.1.3.wav","116","even","756821","759287","758787","758071","740350","NA","755820","760039","989","NA","NA","740348","761682","458076","740348","101110","NA","755821","991","New experiment","NA","0","0","0","yes","1024"
"undefined","undefined","undefined","undefined","black","no","legacy","0","uniform","undefined","undefined","undefined","101","101","203","101","101","NA","101","101","0","0","0","101","101","0","101","0","NA","101","0","Fri 26 Jul 2019 12:33:18 PM PDT","500","1000","The main experiment item","yes","NA","ABX_v3.osexp","/home/ubuntu/Desktop/panara","no","no","mono","no","18","no","white","no","yes","768","47","53","/home/ubuntu/Desktop/panara/subject-116.csv","Jazzy James","3.1.3","2.2.3.wav","2.2.5.wav","4.2.5.wav","0","1","1","1","NA","903","15468","903","NA","100118","1","2","1024","2","48000","-16","experiment","2.2.3.wav","4.2.5.wav","2.2.5.wav","116","even","762894","765409","764909","764150","740350","NA","761894","766169","989","NA","NA","761891","767073","458076","761891","101110","NA","761894","991","New experiment","NA","0","0","0","yes","1024"
"undefined","undefined","undefined","undefined","black","no","legacy","0","uniform","undefined","undefined","undefined","102","102","205","102","102","NA","102","102","0","0","0","102","102","0","102","0","NA","102","0","Fri 26 Jul 2019 12:33:18 PM PDT","500","1000","The main experiment item","yes","NA","ABX_v3.osexp","/home/ubuntu/Desktop/panara","no","no","mono","no","18","no","white","no","yes","768","48","53","/home/ubuntu/Desktop/panara/subject-116.csv","Jazzy James","3.1.3","1.1.3.wav","2.1.3.wav","2.1.5.wav","0","1","1","1","NA","1189","15468","1189","NA","100118","1","2","1024","2","48000","-16","experiment","1.1.3.wav","2.1.5.wav","2.1.3.wav","116","even","768277","770832","770332","769581","740350","NA","767276","771588","989","NA","NA","767274","772777","458076","767274","101110","NA","767277","991","New experiment","NA","0","0","0","yes","1024"
"undefined","undefined","undefined","undefined","black","no","legacy","0","uniform","undefined","undefined","undefined","103","103","207","103","103","NA","103","103","0","0","0","103","103","0","103","0","NA","103","0","Fri 26 Jul 2019 12:33:18 PM PDT","500","1000","The main experiment item","yes","NA","ABX_v3.osexp","/home/ubuntu/Desktop/panara","no","no","mono","no","18","no","white","no","yes","768","49","53","/home/ubuntu/Desktop/panara/subject-116.csv","Jazzy James","3.1.3","3.2.1.wav","3.1.1.wav","3.1.3.wav","0","1","1","1","NA","4045","15468","4045","NA","100118","1","2","1024","2","48000","-16","experiment","3.2.1.wav","3.1.3.wav","3.1.1.wav","116","even","773986","776480","775980","775228","740350","NA","772986","777234","989","NA","NA","772983","781280","458076","772983","101110","NA","772986","991","New experiment","NA","0","0","0","yes","1024"
"undefined","undefined","undefined","undefined","black","no","legacy","0","uniform","undefined","undefined","undefined","104","104","209","104","104","NA","104","104","0","0","0","104","104","0","104","0","NA","104","0","Fri 26 Jul 2019 12:33:18 PM PDT","500","1000","The main experiment item","yes","NA","ABX_v3.osexp","/home/ubuntu/Desktop/panara","no","no","mono","no","18","no","white","no","yes","768","50","53","/home/ubuntu/Desktop/panara/subject-116.csv","Jazzy James","3.1.3","1.2.2.wav","1.2.4.wav","2.2.4.wav","0","1","1","1","NA","889","15468","889","NA","100118","1","2","1024","2","48000","-16","experiment","1.2.2.wav","2.2.4.wav","1.2.4.wav","116","even","782512","785041","784541","783796","740350","NA","781511","785759","989","NA","NA","781509","786648","458076","781509","101110","NA","781512","991","New experiment","NA","0","0","0","yes","1024"
"undefined","undefined","undefined","undefined","black","no","legacy","0","uniform","undefined","undefined","undefined","105","105","211","105","105","NA","105","105","0","0","0","105","105","0","105","0","NA","105","0","Fri 26 Jul 2019 12:33:18 PM PDT","500","1000","The main experiment item","yes","NA","ABX_v3.osexp","/home/ubuntu/Desktop/panara","no","no","mono","no","18","no","white","no","yes","768","51","53","/home/ubuntu/Desktop/panara/subject-116.csv","Jazzy James","3.1.3","3.2.3.wav","3.2.5.wav","4.2.5.wav","0","1","1","1","NA","723","15468","723","NA","100118","1","2","1024","2","48000","-16","experiment","3.2.3.wav","4.2.5.wav","3.2.5.wav","116","even","787884","790416","789916","789135","740350","NA","786883","791148","989","NA","NA","786881","791872","458076","786881","101110","NA","786884","991","New experiment","NA","0","0","0","yes","1024"
"undefined","undefined","undefined","undefined","black","no","legacy","0","uniform","undefined","undefined","undefined","106","106","213","106","106","NA","106","106","0","0","0","106","106","0","106","0","NA","106","0","Fri 26 Jul 2019 12:33:18 PM PDT","500","1000","The main experiment item","yes","NA","ABX_v3.osexp","/home/ubuntu/Desktop/panara","yes","no","mono","no","18","no","white","no","yes","768","52","53","/home/ubuntu/Desktop/panara/subject-116.csv","Jazzy James","3.1.3","4.1.3.wav","3.1.3.wav","3.1.1.wav","0","0","1","0","NA","2335","15468","2335","NA","100118","1","2","1024","2","48000","-16","experiment","3.1.1.wav","4.1.3.wav","3.1.3.wav","116","even","793077","795542","795042","794292","740350","NA","792077","796296","989","NA","NA","792074","798631","458076","792074","101110","NA","792077","991","New experiment","NA","0","0","0","yes","1024"
"undefined","undefined","undefined","undefined","black","no","legacy","0","uniform","undefined","undefined","undefined","107","107","215","107","107","NA","107","107","0","0","0","107","107","0","107","0","NA","107","0","Fri 26 Jul 2019 12:33:18 PM PDT","500","1000","The main experiment item","yes","NA","ABX_v3.osexp","/home/ubuntu/Desktop/panara","yes","no","mono","no","18","no","white","no","yes","768","53","53","/home/ubuntu/Desktop/panara/subject-116.csv","Jazzy James","3.1.3","3.1.3.wav","4.1.3.wav","4.1.1.wav","0","0","1","0","NA","5504","15468","5504","NA","100118","1","2","1024","2","48000","-16","experiment","4.1.1.wav","3.1.3.wav","4.1.3.wav","116","even","799816","802313","801813","801061","740350","NA","798816","803038","989","NA","NA","798813","808543","458076","798813","101110","NA","798816","991","New experiment","NA","0","0","0","yes","1024"
"undefined","undefined","undefined","undefined","black","no","legacy","0","uniform","undefined","undefined","undefined","108","108","217","108","108","NA","108","108","0","0","0","108","108","0","108","0","NA","108","0","Fri 26 Jul 2019 12:33:18 PM PDT","500","1000","The main experiment item","yes","NA","ABX_v3.osexp","/home/ubuntu/Desktop/panara","yes","no","mono","no","18","no","white","no","yes","768","54","53","/home/ubuntu/Desktop/panara/subject-116.csv","Jazzy James","3.1.3","1.1.3.wav","1.1.1.wav","3.1.1.wav","0","1","1","1","NA","1087","15468","1087","NA","100118","1","2","1024","2","48000","-16","experiment","3.1.1.wav","1.1.3.wav","1.1.1.wav","116","even","809767","812330","811830","811038","740350","NA","808767","813078","989","NA","NA","808764","814165","458076","808764","101110","NA","808767","991","New experiment","NA","0","0","0","yes","1024"
"undefined","undefined","undefined","undefined","black","no","legacy","0","uniform","undefined","undefined","undefined","109","109","219","109","109","NA","109","109","0","0","0","109","109","0","109","0","NA","109","0","Fri 26 Jul 2019 12:33:18 PM PDT","500","1000","The main experiment item","yes","NA","ABX_v3.osexp","/home/ubuntu/Desktop/panara","yes","no","mono","no","18","no","white","no","yes","768","55","53","/home/ubuntu/Desktop/panara/subject-116.csv","Jazzy James","3.1.3","4.2.5.wav","4.2.3.wav","4.1.3.wav","0","1","1","1","NA","2158","15468","2158","NA","100118","1","2","1024","2","48000","-16","experiment","4.1.3.wav","4.2.5.wav","4.2.3.wav","116","even","815380","817843","817343","816590","740350","NA","814380","818567","989","NA","NA","814378","820726","458076","814378","101110","NA","814380","991","New experiment","NA","0","0","0","yes","1024"
"undefined","undefined","undefined","undefined","black","no","legacy","0","uniform","undefined","undefined","undefined","110","110","221","110","110","NA","110","110","0","0","0","110","110","0","110","0","NA","110","0","Fri 26 Jul 2019 12:33:18 PM PDT","500","1000","The main experiment item","yes","NA","ABX_v3.osexp","/home/ubuntu/Desktop/panara","yes","no","mono","no","18","no","white","no","yes","768","56","53","/home/ubuntu/Desktop/panara/subject-116.csv","Jazzy James","3.1.3","1.1.4.wav","2.1.4.wav","2.1.2.wav","0","0","1","0","NA","1935","15468","1935","NA","100118","1","2","1024","2","48000","-16","experiment","2.1.2.wav","1.1.4.wav","2.1.4.wav","116","even","821919","824469","823969","823210","740350","NA","820919","825221","989","NA","NA","820916","827157","458076","820916","101110","NA","820919","991","New experiment","NA","0","0","0","yes","1024"
"undefined","undefined","undefined","undefined","black","no","legacy","0","uniform","undefined","undefined","undefined","111","111","223","111","111","NA","111","111","0","0","0","111","111","0","111","0","NA","111","0","Fri 26 Jul 2019 12:33:18 PM PDT","500","1000","The main experiment item","yes","NA","ABX_v3.osexp","/home/ubuntu/Desktop/panara","yes","no","mono","no","18","no","white","no","yes","768","57","53","/home/ubuntu/Desktop/panara/subject-116.csv","Jazzy James","3.1.3","2.1.4.wav","2.1.2.wav","2.2.2.wav","0","0","1","0","NA","525","15468","525","NA","100118","1","2","1024","2","48000","-16","experiment","2.2.2.wav","2.1.4.wav","2.1.2.wav","116","even","828334","830833","830333","829588","740350","NA","827333","831558","989","NA","NA","827331","832084","458076","827331","101110","NA","827334","991","New experiment","NA","0","0","0","yes","1024"
"undefined","undefined","undefined","undefined","black","no","legacy","0","uniform","undefined","undefined","undefined","112","112","225","112","112","NA","112","112","0","0","0","112","112","0","112","0","NA","112","0","Fri 26 Jul 2019 12:33:18 PM PDT","500","1000","The main experiment item","yes","NA","ABX_v3.osexp","/home/ubuntu/Desktop/panara","yes","no","mono","no","18","no","white","no","yes","768","58","53","/home/ubuntu/Desktop/panara/subject-116.csv","Jazzy James","3.1.3","4.2.3.wav","4.1.3.wav","4.1.1.wav","0","1","1","1","NA","1160","15468","1160","NA","100118","1","2","1024","2","48000","-16","experiment","4.1.1.wav","4.2.3.wav","4.1.3.wav","116","even","833271","835745","835245","834529","740350","NA","832271","836500","989","NA","NA","832269","837661","458076","832268","101110","NA","832271","991","New experiment","NA","0","0","0","yes","1024"
"undefined","undefined","undefined","undefined","black","no","legacy","0","uniform","undefined","undefined","undefined","113","113","227","113","113","NA","113","113","0","0","0","113","113","0","113","0","NA","113","0","Fri 26 Jul 2019 12:33:18 PM PDT","500","1000","The main experiment item","yes","NA","ABX_v3.osexp","/home/ubuntu/Desktop/panara","yes","no","mono","no","18","no","white","no","yes","768","59","53","/home/ubuntu/Desktop/panara/subject-116.csv","Jazzy James","3.1.3","1.1.5.wav","3.1.5.wav","3.1.3.wav","0","0","1","0","NA","432","15468","432","NA","100118","1","2","1024","2","48000","-16","experiment","3.1.3.wav","1.1.5.wav","3.1.5.wav","116","even","838877","841436","840936","840157","740350","NA","837877","842188","989","NA","NA","837875","842620","458076","837875","101110","NA","837877","991","New experiment","NA","0","0","0","yes","1024"
"undefined","undefined","undefined","undefined","black","no","legacy","0","uniform","undefined","undefined","undefined","114","114","229","114","114","NA","114","114","0","0","0","114","114","0","114","0","NA","114","0","Fri 26 Jul 2019 12:33:18 PM PDT","500","1000","The main experiment item","yes","NA","ABX_v3.osexp","/home/ubuntu/Desktop/panara","no","no","mono","no","18","no","white","no","yes","768","60","53","/home/ubuntu/Desktop/panara/subject-116.csv","Jazzy James","3.1.3","4.1.1.wav","4.1.3.wav","2.1.3.wav","0","1","1","1","NA","600","15468","600","NA","100118","1","2","1024","2","48000","-16","experiment","4.1.1.wav","2.1.3.wav","4.1.3.wav","116","even","843812","846301","845801","845047","740350","NA","842812","847051","989","NA","NA","842809","847652","458076","842809","101110","NA","842812","991","New experiment","NA","0","0","0","yes","1024"
