"acc","accuracy","average_response_time","avg_rt","background","bidi","canvas_backend","compensation","coordinates","correct","correct_display_selecting","correct_welcome","count_A","count_B","count_ISI","count_X","count_break","count_determine_break","count_display_listening","count_display_selecting","count_experiment","count_finished","count_getting_started","count_new_inline_script","count_new_logger","count_new_loop","count_new_sequence","count_plain_block","count_setup_breaks","count_wait_nextitem","count_welcome","datetime","delay_ISI","delay_wait_nextitem","description","disable_garbage_collection","empty_column","experiment_file","experiment_path","flip_order","font_bold","font_family","font_italic","font_size","font_underline","foreground","form_clicks","fullscreen","height","live_row","live_row_plain_block","logfile","opensesame_codename","opensesame_version","play1","play2","play3","repeat_cycle","response","response_break","response_display_selecting","response_finished","response_time","response_time_break","response_time_display_selecting","response_time_finished","response_time_welcome","response_welcome","round_decimals","sound_buf_size","sound_channels","sound_freq","sound_sample_size","start","stimA","stimB","stimX","subject_nr","subject_parity","time_A","time_B","time_ISI","time_X","time_break","time_determine_break","time_display_listening","time_display_selecting","time_experiment","time_finished","time_getting_started","time_new_inline_script","time_new_logger","time_new_loop","time_new_sequence","time_plain_block","time_setup_breaks","time_wait_nextitem","time_welcome","title","to_break","total_correct","total_response_time","total_responses","uniform_coordinates","width"
"undefined","undefined","undefined","undefined","black","no","legacy","0","uniform","undefined","undefined","undefined","0","0","1","0","0","NA","0","0","0","0","0","0","0","0","0","0","NA","0","0","Thu 30 May 2019 11:39:47 AM PDT","500","1000","The main experiment item","yes","NA","ABX_v3.osexp","/home/ubuntu/Desktop/panara","no","no","mono","no","18","no","white","no","yes","768","0","0","/home/ubuntu/Desktop/panara/subject-704.csv","Jazzy James","3.1.3","1.1.3.wav","1.1.3.wav","1.1.5.wav","0","0","NA","0","NA","11681","NA","11681","NA","1845897","o","2","1024","2","48000","-16","experiment","1.1.3.wav","1.1.5.wav","1.1.3.wav","704","even","1847663","1850227","1849727","1848944","NA","NA","1846663","1851021","716","NA","NA","1846661","1862703","NA","1846661","1846616","NA","1846663","718","New experiment","NA","0","0","0","yes","1024"
"undefined","undefined","undefined","undefined","black","no","legacy","0","uniform","undefined","undefined","undefined","1","1","3","1","1","NA","1","1","0","0","0","1","1","0","1","0","NA","1","0","Thu 30 May 2019 11:39:47 AM PDT","500","1000","The main experiment item","yes","NA","ABX_v3.osexp","/home/ubuntu/Desktop/panara","no","no","mono","no","18","no","white","no","yes","768","1","1","/home/ubuntu/Desktop/panara/subject-704.csv","Jazzy James","3.1.3","5.2.3.wav","5.2.5.wav","5.2.5.wav","0","0","NA","0","NA","4081","NA","4081","NA","1845897","o","2","1024","2","48000","-16","experiment","5.2.3.wav","5.2.5.wav","5.2.5.wav","704","even","1863958","1866439","1865939","1865197","NA","NA","1862958","1867156","716","NA","NA","1862955","1871237","NA","1862955","1846616","NA","1862958","718","New experiment","NA","0","0","0","yes","1024"
"undefined","undefined","undefined","undefined","black","no","legacy","0","uniform","undefined","undefined","undefined","2","2","5","2","2","NA","2","2","0","0","0","2","2","0","2","0","NA","2","0","Thu 30 May 2019 11:39:47 AM PDT","500","1000","The main experiment item","yes","NA","ABX_v3.osexp","/home/ubuntu/Desktop/panara","yes","no","mono","no","18","no","white","no","yes","768","2","2","/home/ubuntu/Desktop/panara/subject-704.csv","Jazzy James","3.1.3","4.2.4.wav","4.2.2.wav","4.2.2.wav","0","1","NA","1","NA","4521","NA","4521","NA","1845897","o","2","1024","2","48000","-16","experiment","4.2.2.wav","4.2.4.wav","4.2.2.wav","704","even","1872405","1874856","1874356","1873644","NA","NA","1871404","1875579","716","NA","NA","1871402","1880100","NA","1871402","1846616","NA","1871405","718","New experiment","NA","0","0","0","yes","1024"
"undefined","undefined","undefined","undefined","black","no","legacy","0","uniform","undefined","undefined","undefined","3","3","7","3","3","NA","3","3","0","0","0","3","3","0","3","0","NA","3","0","Thu 30 May 2019 11:39:47 AM PDT","500","1000","The main experiment item","yes","NA","ABX_v3.osexp","/home/ubuntu/Desktop/panara","no","no","mono","no","18","no","white","no","yes","768","3","3","/home/ubuntu/Desktop/panara/subject-704.csv","Jazzy James","3.1.3","4.2.1.wav","4.2.1.wav","4.2.3.wav","0","1","NA","1","NA","1441","NA","1441","NA","1845897","o","2","1024","2","48000","-16","experiment","4.2.1.wav","4.2.3.wav","4.2.1.wav","704","even","1881271","1883781","1883281","1882534","NA","NA","1880271","1884524","716","NA","NA","1880268","1885965","NA","1880268","1846616","NA","1880271","718","New experiment","NA","0","0","0","yes","1024"
"undefined","undefined","undefined","undefined","black","no","legacy","0","uniform","undefined","undefined","undefined","4","4","9","4","4","NA","4","4","0","0","0","4","4","0","4","0","NA","4","0","Thu 30 May 2019 11:39:47 AM PDT","500","1000","The main experiment item","yes","NA","ABX_v3.osexp","/home/ubuntu/Desktop/panara","no","no","mono","no","18","no","white","no","yes","768","4","4","/home/ubuntu/Desktop/panara/subject-704.csv","Jazzy James","3.1.3","5.2.3.wav","5.2.3.wav","5.2.5.wav","0","0","NA","0","NA","2293","NA","2293","NA","1845897","o","2","1024","2","48000","-16","experiment","5.2.3.wav","5.2.5.wav","5.2.3.wav","704","even","1887113","1889595","1889095","1888381","NA","NA","1886113","1890319","716","NA","NA","1886110","1892612","NA","1886110","1846616","NA","1886113","718","New experiment","NA","0","0","0","yes","1024"
"undefined","undefined","undefined","undefined","black","no","legacy","0","uniform","undefined","undefined","undefined","5","5","11","5","5","NA","5","5","0","0","0","5","5","0","5","0","NA","5","0","Thu 30 May 2019 11:39:47 AM PDT","500","1000","The main experiment item","yes","NA","ABX_v3.osexp","/home/ubuntu/Desktop/panara","no","no","mono","no","18","no","white","no","yes","768","5","5","/home/ubuntu/Desktop/panara/subject-704.csv","Jazzy James","3.1.3","3.2.2.wav","3.2.2.wav","3.2.4.wav","0","1","NA","1","NA","2287","NA","2287","NA","1845897","o","2","1024","2","48000","-16","experiment","3.2.2.wav","3.2.4.wav","3.2.2.wav","704","even","1893769","1896316","1895816","1895043","NA","NA","1892769","1897084","716","NA","NA","1892766","1899371","NA","1892766","1846616","NA","1892769","718","New experiment","NA","0","0","0","yes","1024"
"undefined","undefined","undefined","undefined","black","no","legacy","0","uniform","undefined","undefined","undefined","6","6","13","6","6","NA","6","6","0","0","0","6","6","0","6","0","NA","6","0","Thu 30 May 2019 11:39:47 AM PDT","500","1000","The main experiment item","yes","NA","ABX_v3.osexp","/home/ubuntu/Desktop/panara","no","no","mono","no","18","no","white","no","yes","768","6","6","/home/ubuntu/Desktop/panara/subject-704.csv","Jazzy James","3.1.3","4.1.1.wav","4.1.1.wav","4.1.3.wav","0","1","NA","1","NA","5616","NA","5616","NA","1845897","o","2","1024","2","48000","-16","experiment","4.1.1.wav","4.1.3.wav","4.1.1.wav","704","even","1900529","1902976","1902476","1901764","NA","NA","1899529","1903690","716","NA","NA","1899526","1909306","NA","1899526","1846616","NA","1899529","718","New experiment","NA","0","0","0","yes","1024"
"undefined","undefined","undefined","undefined","black","no","legacy","0","uniform","undefined","undefined","undefined","7","7","15","7","7","NA","7","7","0","0","0","7","7","0","7","0","NA","7","0","Thu 30 May 2019 11:39:47 AM PDT","500","1000","The main experiment item","yes","NA","ABX_v3.osexp","/home/ubuntu/Desktop/panara","no","no","mono","no","18","no","white","no","yes","768","7","7","/home/ubuntu/Desktop/panara/subject-704.csv","Jazzy James","3.1.3","5.2.1.wav","5.2.3.wav","5.2.3.wav","0","1","NA","1","NA","4972","NA","4972","NA","1845897","o","2","1024","2","48000","-16","experiment","5.2.1.wav","5.2.3.wav","5.2.3.wav","704","even","1910431","1912895","1912395","1911644","NA","NA","1909431","1913614","716","NA","NA","1909429","1918587","NA","1909429","1846616","NA","1909431","718","New experiment","NA","0","0","0","yes","1024"
"undefined","undefined","undefined","undefined","black","no","legacy","0","uniform","undefined","undefined","undefined","8","8","17","8","8","NA","8","8","0","0","0","8","8","0","8","0","NA","8","0","Thu 30 May 2019 11:39:47 AM PDT","500","1000","The main experiment item","yes","NA","ABX_v3.osexp","/home/ubuntu/Desktop/panara","no","no","mono","no","18","no","white","no","yes","768","8","8","/home/ubuntu/Desktop/panara/subject-704.csv","Jazzy James","3.1.3","2.2.3.wav","2.2.3.wav","2.2.5.wav","0","1","NA","1","NA","879","NA","879","NA","1845897","o","2","1024","2","48000","-16","experiment","2.2.3.wav","2.2.5.wav","2.2.3.wav","704","even","1919741","1922197","1921697","1920979","NA","NA","1918741","1922915","716","NA","NA","1918739","1923794","NA","1918739","1846616","NA","1918741","718","New experiment","NA","0","0","0","yes","1024"
"undefined","undefined","undefined","undefined","black","no","legacy","0","uniform","undefined","undefined","undefined","9","9","19","9","9","NA","9","9","0","0","0","9","9","0","9","0","NA","9","0","Thu 30 May 2019 11:39:47 AM PDT","500","1000","The main experiment item","yes","NA","ABX_v3.osexp","/home/ubuntu/Desktop/panara","no","no","mono","no","18","no","white","no","yes","768","9","9","/home/ubuntu/Desktop/panara/subject-704.csv","Jazzy James","3.1.3","4.2.2.wav","4.2.4.wav","4.2.4.wav","0","0","NA","0","NA","1539","NA","1539","NA","1845897","o","2","1024","2","48000","-16","experiment","4.2.2.wav","4.2.4.wav","4.2.4.wav","704","even","1924922","1927388","1926888","1926164","NA","NA","1923922","1928102","716","NA","NA","1923919","1929642","NA","1923919","1846616","NA","1923922","718","New experiment","NA","0","0","0","yes","1024"
"undefined","undefined","undefined","undefined","black","no","legacy","0","uniform","undefined","undefined","undefined","10","10","21","10","10","NA","10","10","0","0","0","10","10","0","10","0","NA","10","0","Thu 30 May 2019 11:39:47 AM PDT","500","1000","The main experiment item","yes","NA","ABX_v3.osexp","/home/ubuntu/Desktop/panara","yes","no","mono","no","18","no","white","no","yes","768","10","10","/home/ubuntu/Desktop/panara/subject-704.csv","Jazzy James","3.1.3","4.1.5.wav","4.1.3.wav","4.1.3.wav","0","0","NA","0","NA","1566","NA","1566","NA","1845897","o","2","1024","2","48000","-16","experiment","4.1.3.wav","4.1.5.wav","4.1.3.wav","704","even","1930756","1933177","1932677","1931961","NA","NA","1929756","1933922","716","NA","NA","1929754","1935489","NA","1929754","1846616","NA","1929756","718","New experiment","NA","0","0","0","yes","1024"
"undefined","undefined","undefined","undefined","black","no","legacy","0","uniform","undefined","undefined","undefined","11","11","23","11","11","NA","11","11","0","0","0","11","11","0","11","0","NA","11","0","Thu 30 May 2019 11:39:47 AM PDT","500","1000","The main experiment item","yes","NA","ABX_v3.osexp","/home/ubuntu/Desktop/panara","yes","no","mono","no","18","no","white","no","yes","768","11","11","/home/ubuntu/Desktop/panara/subject-704.csv","Jazzy James","3.1.3","5.2.4.wav","5.2.4.wav","5.2.2.wav","0","0","NA","0","NA","1633","NA","1633","NA","1845897","o","2","1024","2","48000","-16","experiment","5.2.2.wav","5.2.4.wav","5.2.4.wav","704","even","1936644","1939129","1938629","1937891","NA","NA","1935644","1939847","716","NA","NA","1935641","1941480","NA","1935641","1846616","NA","1935644","718","New experiment","NA","0","0","0","yes","1024"
"undefined","undefined","undefined","undefined","black","no","legacy","0","uniform","undefined","undefined","undefined","12","12","25","12","12","NA","12","12","0","0","0","12","12","0","12","0","NA","12","0","Thu 30 May 2019 11:39:47 AM PDT","500","1000","The main experiment item","yes","NA","ABX_v3.osexp","/home/ubuntu/Desktop/panara","yes","no","mono","no","18","no","white","no","yes","768","12","12","/home/ubuntu/Desktop/panara/subject-704.csv","Jazzy James","3.1.3","4.1.5.wav","4.1.5.wav","4.1.3.wav","0","1","NA","1","NA","1946","NA","1946","NA","1845897","o","2","1024","2","48000","-16","experiment","4.1.3.wav","4.1.5.wav","4.1.5.wav","704","even","1942611","1945063","1944563","1943855","NA","NA","1941610","1945830","716","NA","NA","1941608","1947777","NA","1941608","1846616","NA","1941610","718","New experiment","NA","0","0","0","yes","1024"
"undefined","undefined","undefined","undefined","black","no","legacy","0","uniform","undefined","undefined","undefined","13","13","27","13","13","NA","13","13","0","0","0","13","13","0","13","0","NA","13","0","Thu 30 May 2019 11:39:47 AM PDT","500","1000","The main experiment item","yes","NA","ABX_v3.osexp","/home/ubuntu/Desktop/panara","yes","no","mono","no","18","no","white","no","yes","768","13","13","/home/ubuntu/Desktop/panara/subject-704.csv","Jazzy James","3.1.3","2.1.3.wav","2.1.3.wav","2.1.1.wav","0","1","NA","1","NA","2232","NA","2232","NA","1845897","o","2","1024","2","48000","-16","experiment","2.1.1.wav","2.1.3.wav","2.1.3.wav","704","even","1948933","1951419","1950919","1950184","NA","NA","1947933","1952159","716","NA","NA","1947931","1954391","NA","1947931","1846616","NA","1947933","718","New experiment","NA","0","0","0","yes","1024"
"undefined","undefined","undefined","undefined","black","no","legacy","0","uniform","undefined","undefined","undefined","14","14","29","14","14","NA","14","14","0","0","0","14","14","0","14","0","NA","14","0","Thu 30 May 2019 11:39:47 AM PDT","500","1000","The main experiment item","yes","NA","ABX_v3.osexp","/home/ubuntu/Desktop/panara","yes","no","mono","no","18","no","white","no","yes","768","14","14","/home/ubuntu/Desktop/panara/subject-704.csv","Jazzy James","3.1.3","3.2.3.wav","3.2.3.wav","3.2.1.wav","0","1","NA","1","NA","1290","NA","1290","NA","1845897","o","2","1024","2","48000","-16","experiment","3.2.1.wav","3.2.3.wav","3.2.3.wav","704","even","1955553","1958081","1957581","1956815","NA","NA","1954553","1958820","716","NA","NA","1954550","1960111","NA","1954550","1846616","NA","1954553","718","New experiment","NA","0","0","0","yes","1024"
"undefined","undefined","undefined","undefined","black","no","legacy","0","uniform","undefined","undefined","undefined","15","15","31","15","15","NA","15","15","0","0","0","15","15","0","15","0","NA","15","0","Thu 30 May 2019 11:39:47 AM PDT","500","1000","The main experiment item","yes","NA","ABX_v3.osexp","/home/ubuntu/Desktop/panara","yes","no","mono","no","18","no","white","no","yes","768","15","15","/home/ubuntu/Desktop/panara/subject-704.csv","Jazzy James","3.1.3","2.1.5.wav","2.1.3.wav","2.1.3.wav","0","0","NA","0","NA","1532","NA","1532","NA","1845897","o","2","1024","2","48000","-16","experiment","2.1.3.wav","2.1.5.wav","2.1.3.wav","704","even","1961258","1963771","1963271","1962520","NA","NA","1960258","1964530","716","NA","NA","1960256","1966063","NA","1960256","1846616","NA","1960258","718","New experiment","NA","0","0","0","yes","1024"
"undefined","undefined","undefined","undefined","black","no","legacy","0","uniform","undefined","undefined","undefined","16","16","33","16","16","NA","16","16","0","0","0","16","16","0","16","0","NA","16","0","Thu 30 May 2019 11:39:47 AM PDT","500","1000","The main experiment item","yes","NA","ABX_v3.osexp","/home/ubuntu/Desktop/panara","no","no","mono","no","18","no","white","no","yes","768","16","16","/home/ubuntu/Desktop/panara/subject-704.csv","Jazzy James","3.1.3","2.1.3.wav","2.1.5.wav","2.1.5.wav","0","0","NA","0","NA","1916","NA","1916","NA","1845897","o","2","1024","2","48000","-16","experiment","2.1.3.wav","2.1.5.wav","2.1.5.wav","704","even","1967241","1969748","1969248","1968485","NA","NA","1966240","1970482","716","NA","NA","1966238","1972398","NA","1966238","1846616","NA","1966241","718","New experiment","NA","0","0","0","yes","1024"
"undefined","undefined","undefined","undefined","black","no","legacy","0","uniform","undefined","undefined","undefined","17","17","35","17","17","NA","17","17","0","0","0","17","17","0","17","0","NA","17","0","Thu 30 May 2019 11:39:47 AM PDT","500","1000","The main experiment item","yes","NA","ABX_v3.osexp","/home/ubuntu/Desktop/panara","no","no","mono","no","18","no","white","no","yes","768","17","17","/home/ubuntu/Desktop/panara/subject-704.csv","Jazzy James","3.1.3","1.2.3.wav","1.2.3.wav","1.2.5.wav","0","1","NA","1","NA","1363","NA","1363","NA","1845897","o","2","1024","2","48000","-16","experiment","1.2.3.wav","1.2.5.wav","1.2.3.wav","704","even","1973563","1976102","1975602","1974839","NA","NA","1972562","1976906","716","NA","NA","1972559","1978270","NA","1972559","1846616","NA","1972563","718","New experiment","NA","0","0","0","yes","1024"
"undefined","undefined","undefined","undefined","black","no","legacy","0","uniform","undefined","undefined","undefined","18","18","37","18","18","NA","18","18","0","0","0","18","18","0","18","0","NA","18","0","Thu 30 May 2019 11:39:47 AM PDT","500","1000","The main experiment item","yes","NA","ABX_v3.osexp","/home/ubuntu/Desktop/panara","yes","no","mono","no","18","no","white","no","yes","768","18","18","/home/ubuntu/Desktop/panara/subject-704.csv","Jazzy James","3.1.3","1.2.4.wav","1.2.4.wav","1.2.2.wav","0","1","NA","1","NA","2434","NA","2434","NA","1845897","o","2","1024","2","48000","-16","experiment","1.2.2.wav","1.2.4.wav","1.2.4.wav","704","even","1979448","1981928","1981428","1980690","NA","NA","1978447","1982715","716","NA","NA","1978445","1985149","NA","1978445","1846616","NA","1978447","718","New experiment","NA","0","0","0","yes","1024"
"undefined","undefined","undefined","undefined","black","no","legacy","0","uniform","undefined","undefined","undefined","19","19","39","19","19","NA","19","19","0","0","0","19","19","0","19","0","NA","19","0","Thu 30 May 2019 11:39:47 AM PDT","500","1000","The main experiment item","yes","NA","ABX_v3.osexp","/home/ubuntu/Desktop/panara","no","no","mono","no","18","no","white","no","yes","768","19","19","/home/ubuntu/Desktop/panara/subject-704.csv","Jazzy James","3.1.3","3.2.3.wav","3.2.5.wav","3.2.5.wav","0","0","NA","0","NA","1174","NA","1174","NA","1845897","o","2","1024","2","48000","-16","experiment","3.2.3.wav","3.2.5.wav","3.2.5.wav","704","even","1986314","1988841","1988341","1987555","NA","NA","1985314","1989615","716","NA","NA","1985312","1990790","NA","1985312","1846616","NA","1985314","718","New experiment","NA","0","0","0","yes","1024"
"undefined","undefined","undefined","undefined","black","no","legacy","0","uniform","undefined","undefined","undefined","20","20","41","20","20","NA","20","20","0","0","0","20","20","0","20","0","NA","20","0","Thu 30 May 2019 11:39:47 AM PDT","500","1000","The main experiment item","yes","NA","ABX_v3.osexp","/home/ubuntu/Desktop/panara","no","no","mono","no","18","no","white","no","yes","768","20","20","/home/ubuntu/Desktop/panara/subject-704.csv","Jazzy James","3.1.3","2.2.1.wav","2.2.1.wav","2.2.3.wav","0","1","NA","1","NA","1857","NA","1857","NA","1845897","o","2","1024","2","48000","-16","experiment","2.2.1.wav","2.2.3.wav","2.2.1.wav","704","even","1991906","1994362","1993862","1993126","NA","NA","1990906","1995084","716","NA","NA","1990903","1996941","NA","1990903","1846616","NA","1990906","718","New experiment","NA","0","0","0","yes","1024"
"undefined","undefined","undefined","undefined","black","no","legacy","0","uniform","undefined","undefined","undefined","21","21","43","21","21","NA","21","21","0","0","0","21","21","0","21","0","NA","21","0","Thu 30 May 2019 11:39:47 AM PDT","500","1000","The main experiment item","yes","NA","ABX_v3.osexp","/home/ubuntu/Desktop/panara","no","no","mono","no","18","no","white","no","yes","768","21","21","/home/ubuntu/Desktop/panara/subject-704.csv","Jazzy James","3.1.3","4.2.1.wav","4.2.3.wav","4.2.3.wav","0","0","NA","0","NA","1900","NA","1900","NA","1845897","o","2","1024","2","48000","-16","experiment","4.2.1.wav","4.2.3.wav","4.2.3.wav","704","even","1998104","2000593","2000093","1999349","NA","NA","1997104","2001351","716","NA","NA","1997101","2003252","NA","1997101","1846616","NA","1997104","718","New experiment","NA","0","0","0","yes","1024"
"undefined","undefined","undefined","undefined","black","no","legacy","0","uniform","undefined","undefined","undefined","22","22","45","22","22","NA","22","22","0","0","0","22","22","0","22","0","NA","22","0","Thu 30 May 2019 11:39:47 AM PDT","500","1000","The main experiment item","yes","NA","ABX_v3.osexp","/home/ubuntu/Desktop/panara","no","no","mono","no","18","no","white","no","yes","768","22","22","/home/ubuntu/Desktop/panara/subject-704.csv","Jazzy James","3.1.3","1.1.2.wav","1.1.4.wav","1.1.4.wav","0","0","NA","0","NA","739","NA","739","NA","1845897","o","2","1024","2","48000","-16","experiment","1.1.2.wav","1.1.4.wav","1.1.4.wav","704","even","2004394","2006972","2006472","2005688","NA","NA","2003394","2007768","716","NA","NA","2003392","2008508","NA","2003392","1846616","NA","2003394","718","New experiment","NA","0","0","0","yes","1024"
"undefined","undefined","undefined","undefined","black","no","legacy","0","uniform","undefined","undefined","undefined","23","23","47","23","23","NA","23","23","0","0","0","23","23","0","23","0","NA","23","0","Thu 30 May 2019 11:39:47 AM PDT","500","1000","The main experiment item","yes","NA","ABX_v3.osexp","/home/ubuntu/Desktop/panara","yes","no","mono","no","18","no","white","no","yes","768","23","23","/home/ubuntu/Desktop/panara/subject-704.csv","Jazzy James","3.1.3","5.2.4.wav","5.2.2.wav","5.2.2.wav","0","0","NA","0","NA","1064","NA","1064","NA","1845897","o","2","1024","2","48000","-16","experiment","5.2.2.wav","5.2.4.wav","5.2.2.wav","704","even","2009662","2012109","2011609","2010896","NA","NA","2008662","2012836","716","NA","NA","2008659","2013900","NA","2008659","1846616","NA","2008662","718","New experiment","NA","0","0","0","yes","1024"
"undefined","undefined","undefined","undefined","black","no","legacy","0","uniform","undefined","undefined","undefined","24","24","49","24","24","NA","24","24","0","0","0","24","24","0","24","0","NA","24","0","Thu 30 May 2019 11:39:47 AM PDT","500","1000","The main experiment item","yes","NA","ABX_v3.osexp","/home/ubuntu/Desktop/panara","no","no","mono","no","18","no","white","no","yes","768","24","24","/home/ubuntu/Desktop/panara/subject-704.csv","Jazzy James","3.1.3","3.2.3.wav","3.2.3.wav","3.2.5.wav","0","1","NA","1","NA","1692","NA","1692","NA","1845897","o","2","1024","2","48000","-16","experiment","3.2.3.wav","3.2.5.wav","3.2.3.wav","704","even","2015078","2017595","2017095","2016332","NA","NA","2014077","2018374","716","NA","NA","2014075","2020067","NA","2014075","1846616","NA","2014078","718","New experiment","NA","0","0","0","yes","1024"
"undefined","undefined","undefined","undefined","black","no","legacy","0","uniform","undefined","undefined","undefined","25","25","51","25","25","NA","25","25","0","0","0","25","25","0","25","0","NA","25","0","Thu 30 May 2019 11:39:47 AM PDT","500","1000","The main experiment item","yes","NA","ABX_v3.osexp","/home/ubuntu/Desktop/panara","yes","no","mono","no","18","no","white","no","yes","768","25","25","/home/ubuntu/Desktop/panara/subject-704.csv","Jazzy James","3.1.3","2.2.3.wav","2.2.3.wav","2.2.1.wav","0","1","NA","1","NA","1457","NA","1457","NA","1845897","o","2","1024","2","48000","-16","experiment","2.2.1.wav","2.2.3.wav","2.2.3.wav","704","even","2021236","2023730","2023230","2022472","NA","NA","2020236","2024458","716","NA","NA","2020233","2025915","NA","2020233","1846616","NA","2020236","718","New experiment","NA","0","0","0","yes","1024"
"undefined","undefined","undefined","undefined","black","no","legacy","0","uniform","undefined","undefined","undefined","26","26","53","26","26","NA","26","26","0","0","0","26","26","0","26","0","NA","26","0","Thu 30 May 2019 11:39:47 AM PDT","500","1000","The main experiment item","yes","NA","ABX_v3.osexp","/home/ubuntu/Desktop/panara","no","no","mono","no","18","no","white","no","yes","768","26","26","/home/ubuntu/Desktop/panara/subject-704.csv","Jazzy James","3.1.3","1.1.2.wav","1.1.2.wav","1.1.4.wav","0","0","NA","0","NA","1973","NA","1973","NA","1845897","o","2","1024","2","48000","-16","experiment","1.1.2.wav","1.1.4.wav","1.1.2.wav","704","even","2027078","2029690","2029190","2028391","NA","NA","2026078","2030477","716","NA","NA","2026075","2032450","NA","2026075","1846616","NA","2026078","718","New experiment","NA","0","0","0","yes","1024"
"undefined","undefined","undefined","undefined","black","no","legacy","0","uniform","undefined","undefined","undefined","27","27","55","27","27","NA","27","27","0","0","0","27","27","0","27","0","NA","27","0","Thu 30 May 2019 11:39:47 AM PDT","500","1000","The main experiment item","yes","NA","ABX_v3.osexp","/home/ubuntu/Desktop/panara","no","no","mono","no","18","no","white","no","yes","768","27","27","/home/ubuntu/Desktop/panara/subject-704.csv","Jazzy James","3.1.3","1.2.2.wav","1.2.2.wav","1.2.4.wav","0","1","NA","1","NA","1600","NA","1600","NA","1845897","o","2","1024","2","48000","-16","experiment","1.2.2.wav","1.2.4.wav","1.2.2.wav","704","even","2033615","2036175","2035675","2034899","NA","NA","2032614","2036929","716","NA","NA","2032611","2038530","NA","2032611","1846616","NA","2032614","718","New experiment","NA","0","0","0","yes","1024"
"undefined","undefined","undefined","undefined","black","no","legacy","0","uniform","undefined","undefined","undefined","28","28","57","28","28","NA","28","28","0","0","0","28","28","0","28","0","NA","28","0","Thu 30 May 2019 11:39:47 AM PDT","500","1000","The main experiment item","yes","NA","ABX_v3.osexp","/home/ubuntu/Desktop/panara","yes","no","mono","no","18","no","white","no","yes","768","28","28","/home/ubuntu/Desktop/panara/subject-704.csv","Jazzy James","3.1.3","1.2.3.wav","1.2.3.wav","1.2.1.wav","0","1","NA","1","NA","1269","NA","1269","NA","1845897","o","2","1024","2","48000","-16","experiment","1.2.1.wav","1.2.3.wav","1.2.3.wav","704","even","2039688","2042259","2041759","2040979","NA","NA","2038687","2043036","716","NA","NA","2038685","2044305","NA","2038685","1846616","NA","2038688","718","New experiment","NA","0","0","0","yes","1024"
"undefined","undefined","undefined","undefined","black","no","legacy","0","uniform","undefined","undefined","undefined","29","29","59","29","29","NA","29","29","0","0","0","29","29","0","29","0","NA","29","0","Thu 30 May 2019 11:39:47 AM PDT","500","1000","The main experiment item","yes","NA","ABX_v3.osexp","/home/ubuntu/Desktop/panara","yes","no","mono","no","18","no","white","no","yes","768","29","29","/home/ubuntu/Desktop/panara/subject-704.csv","Jazzy James","3.1.3","3.1.5.wav","3.1.5.wav","3.1.3.wav","0","1","NA","1","NA","1546","NA","1546","NA","1845897","o","2","1024","2","48000","-16","experiment","3.1.3.wav","3.1.5.wav","3.1.5.wav","704","even","2045461","2048015","2047515","2046731","NA","NA","2044461","2048750","716","NA","NA","2044458","2050297","NA","2044458","1846616","NA","2044461","718","New experiment","NA","0","0","0","yes","1024"
"undefined","undefined","undefined","undefined","black","no","legacy","0","uniform","undefined","undefined","undefined","30","30","61","30","30","NA","30","30","0","0","0","30","30","0","30","0","NA","30","0","Thu 30 May 2019 11:39:47 AM PDT","500","1000","The main experiment item","yes","NA","ABX_v3.osexp","/home/ubuntu/Desktop/panara","yes","no","mono","no","18","no","white","no","yes","768","30","30","/home/ubuntu/Desktop/panara/subject-704.csv","Jazzy James","3.1.3","1.2.5.wav","1.2.5.wav","1.2.3.wav","0","1","NA","1","NA","3514","NA","3514","NA","1845897","o","2","1024","2","48000","-16","experiment","1.2.3.wav","1.2.5.wav","1.2.5.wav","704","even","2051455","2054026","2053526","2052742","NA","NA","2050455","2054814","716","NA","NA","2050452","2058328","NA","2050452","1846616","NA","2050455","718","New experiment","NA","0","0","0","yes","1024"
"undefined","undefined","undefined","undefined","black","no","legacy","0","uniform","undefined","undefined","undefined","31","31","63","31","31","NA","31","31","0","0","0","31","31","0","31","0","NA","31","0","Thu 30 May 2019 11:39:47 AM PDT","500","1000","The main experiment item","yes","NA","ABX_v3.osexp","/home/ubuntu/Desktop/panara","yes","no","mono","no","18","no","white","no","yes","768","31","31","/home/ubuntu/Desktop/panara/subject-704.csv","Jazzy James","3.1.3","3.1.4.wav","3.1.2.wav","3.1.2.wav","0","0","NA","0","NA","816","NA","816","NA","1845897","o","2","1024","2","48000","-16","experiment","3.1.2.wav","3.1.4.wav","3.1.2.wav","704","even","2059490","2062051","2061551","2060766","NA","NA","2058490","2062856","716","NA","NA","2058488","2063673","NA","2058487","1846616","NA","2058490","718","New experiment","NA","0","0","0","yes","1024"
"undefined","undefined","undefined","undefined","black","no","legacy","0","uniform","undefined","undefined","undefined","32","32","65","32","32","NA","32","32","0","0","0","32","32","0","32","0","NA","32","0","Thu 30 May 2019 11:39:47 AM PDT","500","1000","The main experiment item","yes","NA","ABX_v3.osexp","/home/ubuntu/Desktop/panara","yes","no","mono","no","18","no","white","no","yes","768","32","32","/home/ubuntu/Desktop/panara/subject-704.csv","Jazzy James","3.1.3","3.1.3.wav","3.1.3.wav","3.1.1.wav","0","0","NA","0","NA","1119","NA","1119","NA","1845897","o","2","1024","2","48000","-16","experiment","3.1.1.wav","3.1.3.wav","3.1.3.wav","704","even","2064835","2067335","2066835","2066066","NA","NA","2063835","2068080","716","NA","NA","2063832","2069199","NA","2063832","1846616","NA","2063835","718","New experiment","NA","0","0","0","yes","1024"
"undefined","undefined","undefined","undefined","black","no","legacy","0","uniform","undefined","undefined","undefined","33","33","67","33","33","NA","33","33","0","0","0","33","33","0","33","0","NA","33","0","Thu 30 May 2019 11:39:47 AM PDT","500","1000","The main experiment item","yes","NA","ABX_v3.osexp","/home/ubuntu/Desktop/panara","yes","no","mono","no","18","no","white","no","yes","768","33","33","/home/ubuntu/Desktop/panara/subject-704.csv","Jazzy James","3.1.3","4.2.5.wav","4.2.5.wav","4.2.3.wav","0","1","NA","1","NA","823","NA","823","NA","1845897","o","2","1024","2","48000","-16","experiment","4.2.3.wav","4.2.5.wav","4.2.5.wav","704","even","2070381","2072883","2072383","2071632","NA","NA","2069381","2073632","716","NA","NA","2069379","2074455","NA","2069379","1846616","NA","2069381","718","New experiment","NA","0","0","0","yes","1024"
"undefined","undefined","undefined","undefined","black","no","legacy","0","uniform","undefined","undefined","undefined","34","34","69","34","34","NA","34","34","0","0","0","34","34","0","34","0","NA","34","0","Thu 30 May 2019 11:39:47 AM PDT","500","1000","The main experiment item","yes","NA","ABX_v3.osexp","/home/ubuntu/Desktop/panara","no","no","mono","no","18","no","white","no","yes","768","34","34","/home/ubuntu/Desktop/panara/subject-704.csv","Jazzy James","3.1.3","2.1.2.wav","2.1.4.wav","2.1.4.wav","0","0","NA","0","NA","1159","NA","1159","NA","1845897","o","2","1024","2","48000","-16","experiment","2.1.2.wav","2.1.4.wav","2.1.4.wav","704","even","2075582","2078088","2077588","2076846","NA","NA","2074582","2078855","716","NA","NA","2074579","2080015","NA","2074579","1846616","NA","2074582","718","New experiment","NA","0","0","0","yes","1024"
"undefined","undefined","undefined","undefined","black","no","legacy","0","uniform","undefined","undefined","undefined","35","35","71","35","35","NA","35","35","0","0","0","35","35","0","35","0","NA","35","0","Thu 30 May 2019 11:39:47 AM PDT","500","1000","The main experiment item","yes","NA","ABX_v3.osexp","/home/ubuntu/Desktop/panara","no","no","mono","no","18","no","white","no","yes","768","35","35","/home/ubuntu/Desktop/panara/subject-704.csv","Jazzy James","3.1.3","2.2.3.wav","2.2.5.wav","2.2.5.wav","0","0","NA","0","NA","422","NA","422","NA","1845897","o","2","1024","2","48000","-16","experiment","2.2.3.wav","2.2.5.wav","2.2.5.wav","704","even","2081198","2083678","2083178","2082427","NA","NA","2080198","2084417","716","NA","NA","2080195","2084839","NA","2080195","1846616","NA","2080198","718","New experiment","NA","0","0","0","yes","1024"
"undefined","undefined","undefined","undefined","black","no","legacy","0","uniform","undefined","undefined","undefined","36","36","73","36","36","NA","36","36","0","0","0","36","36","0","36","0","NA","36","0","Thu 30 May 2019 11:39:47 AM PDT","500","1000","The main experiment item","yes","NA","ABX_v3.osexp","/home/ubuntu/Desktop/panara","no","no","mono","no","18","no","white","no","yes","768","36","36","/home/ubuntu/Desktop/panara/subject-704.csv","Jazzy James","3.1.3","4.1.2.wav","4.1.2.wav","4.1.4.wav","0","1","NA","1","NA","1104","NA","1104","NA","1845897","o","2","1024","2","48000","-16","experiment","4.1.2.wav","4.1.4.wav","4.1.2.wav","704","even","2086022","2088525","2088025","2087278","NA","NA","2085022","2089238","716","NA","NA","2085019","2090342","NA","2085019","1846616","NA","2085022","718","New experiment","NA","0","0","0","yes","1024"
"undefined","undefined","undefined","undefined","black","no","legacy","0","uniform","undefined","undefined","undefined","37","37","75","37","37","NA","37","37","0","0","0","37","37","0","37","0","NA","37","0","Thu 30 May 2019 11:39:47 AM PDT","500","1000","The main experiment item","yes","NA","ABX_v3.osexp","/home/ubuntu/Desktop/panara","no","no","mono","no","18","no","white","no","yes","768","37","37","/home/ubuntu/Desktop/panara/subject-704.csv","Jazzy James","3.1.3","2.1.1.wav","2.1.1.wav","2.1.3.wav","0","1","NA","1","NA","617","NA","617","NA","1845897","o","2","1024","2","48000","-16","experiment","2.1.1.wav","2.1.3.wav","2.1.1.wav","704","even","2091499","2094005","2093505","2092760","NA","NA","2090498","2094764","716","NA","NA","2090496","2095382","NA","2090496","1846616","NA","2090499","718","New experiment","NA","0","0","0","yes","1024"
"undefined","undefined","undefined","undefined","black","no","legacy","0","uniform","undefined","undefined","undefined","38","38","77","38","38","NA","38","38","0","0","0","38","38","0","38","0","NA","38","0","Thu 30 May 2019 11:39:47 AM PDT","500","1000","The main experiment item","yes","NA","ABX_v3.osexp","/home/ubuntu/Desktop/panara","yes","no","mono","no","18","no","white","no","yes","768","38","38","/home/ubuntu/Desktop/panara/subject-704.csv","Jazzy James","3.1.3","3.1.4.wav","3.1.4.wav","3.1.2.wav","0","0","NA","0","NA","2625","NA","2625","NA","1845897","o","2","1024","2","48000","-16","experiment","3.1.2.wav","3.1.4.wav","3.1.4.wav","704","even","2096567","2099125","2098625","2097840","NA","NA","2095566","2099900","716","NA","NA","2095564","2102525","NA","2095564","1846616","NA","2095567","718","New experiment","NA","0","0","0","yes","1024"
"undefined","undefined","undefined","undefined","black","no","legacy","0","uniform","undefined","undefined","undefined","39","39","79","39","39","NA","39","39","0","0","0","39","39","0","39","0","NA","39","0","Thu 30 May 2019 11:39:47 AM PDT","500","1000","The main experiment item","yes","NA","ABX_v3.osexp","/home/ubuntu/Desktop/panara","no","no","mono","no","18","no","white","no","yes","768","39","39","/home/ubuntu/Desktop/panara/subject-704.csv","Jazzy James","3.1.3","2.2.2.wav","2.2.2.wav","2.2.4.wav","0","1","NA","1","NA","460","NA","460","NA","1845897","o","2","1024","2","48000","-16","experiment","2.2.2.wav","2.2.4.wav","2.2.2.wav","704","even","2103710","2106170","2105670","2104929","NA","NA","2102710","2106928","716","NA","NA","2102708","2107389","NA","2102708","1846616","NA","2102710","718","New experiment","NA","0","0","0","yes","1024"
"undefined","undefined","undefined","undefined","black","no","legacy","0","uniform","undefined","undefined","undefined","40","40","81","40","40","NA","40","40","0","0","0","40","40","0","40","0","NA","40","0","Thu 30 May 2019 11:39:47 AM PDT","500","1000","The main experiment item","yes","NA","ABX_v3.osexp","/home/ubuntu/Desktop/panara","no","no","mono","no","18","no","white","no","yes","768","40","40","/home/ubuntu/Desktop/panara/subject-704.csv","Jazzy James","3.1.3","4.1.2.wav","4.1.4.wav","4.1.4.wav","0","0","NA","0","NA","2512","NA","2512","NA","1845897","o","2","1024","2","48000","-16","experiment","4.1.2.wav","4.1.4.wav","4.1.4.wav","704","even","2108562","2111007","2110507","2109791","NA","NA","2107562","2111748","716","NA","NA","2107560","2114260","NA","2107560","1846616","NA","2107562","718","New experiment","NA","0","0","0","yes","1024"
"undefined","undefined","undefined","undefined","black","no","legacy","0","uniform","undefined","undefined","undefined","41","41","83","41","41","NA","41","41","0","0","0","41","41","0","41","0","NA","41","0","Thu 30 May 2019 11:39:47 AM PDT","500","1000","The main experiment item","yes","NA","ABX_v3.osexp","/home/ubuntu/Desktop/panara","no","no","mono","no","18","no","white","no","yes","768","41","41","/home/ubuntu/Desktop/panara/subject-704.csv","Jazzy James","3.1.3","2.2.2.wav","2.2.4.wav","2.2.4.wav","0","0","NA","0","NA","819","NA","819","NA","1845897","o","2","1024","2","48000","-16","experiment","2.2.2.wav","2.2.4.wav","2.2.4.wav","704","even","2115433","2117897","2117397","2116661","NA","NA","2114433","2118609","716","NA","NA","2114430","2119429","NA","2114430","1846616","NA","2114433","718","New experiment","NA","0","0","0","yes","1024"
"undefined","undefined","undefined","undefined","black","no","legacy","0","uniform","undefined","undefined","undefined","42","42","85","42","42","NA","42","42","0","0","0","42","42","0","42","0","NA","42","0","Thu 30 May 2019 11:39:47 AM PDT","500","1000","The main experiment item","yes","NA","ABX_v3.osexp","/home/ubuntu/Desktop/panara","yes","no","mono","no","18","no","white","no","yes","768","42","42","/home/ubuntu/Desktop/panara/subject-704.csv","Jazzy James","3.1.3","2.1.4.wav","2.1.2.wav","2.1.2.wav","0","0","NA","0","NA","1340","NA","1340","NA","1845897","o","2","1024","2","48000","-16","experiment","2.1.2.wav","2.1.4.wav","2.1.2.wav","704","even","2120608","2123120","2122620","2121870","NA","NA","2119608","2123887","716","NA","NA","2119605","2125228","NA","2119605","1846616","NA","2119608","718","New experiment","NA","0","0","0","yes","1024"
"undefined","undefined","undefined","undefined","black","no","legacy","0","uniform","undefined","undefined","undefined","43","43","87","43","43","NA","43","43","0","0","0","43","43","0","43","0","NA","43","0","Thu 30 May 2019 11:39:47 AM PDT","500","1000","The main experiment item","yes","NA","ABX_v3.osexp","/home/ubuntu/Desktop/panara","yes","no","mono","no","18","no","white","no","yes","768","43","43","/home/ubuntu/Desktop/panara/subject-704.csv","Jazzy James","3.1.3","4.1.3.wav","4.1.3.wav","4.1.1.wav","0","0","NA","0","NA","4950","NA","4950","NA","1845897","o","2","1024","2","48000","-16","experiment","4.1.1.wav","4.1.3.wav","4.1.3.wav","704","even","2126395","2128814","2128314","2127596","NA","NA","2125395","2129557","716","NA","NA","2125393","2134507","NA","2125393","1846616","NA","2125395","718","New experiment","NA","0","0","0","yes","1024"
"undefined","undefined","undefined","undefined","black","no","legacy","0","uniform","undefined","undefined","undefined","44","44","89","44","44","NA","44","44","0","0","0","44","44","0","44","0","NA","44","0","Thu 30 May 2019 11:39:47 AM PDT","500","1000","The main experiment item","yes","NA","ABX_v3.osexp","/home/ubuntu/Desktop/panara","no","no","mono","no","18","no","white","no","yes","768","44","44","/home/ubuntu/Desktop/panara/subject-704.csv","Jazzy James","3.1.3","3.1.1.wav","3.1.1.wav","3.1.3.wav","0","1","NA","1","NA","4688","NA","4688","NA","1845897","o","2","1024","2","48000","-16","experiment","3.1.1.wav","3.1.3.wav","3.1.1.wav","704","even","2135689","2138203","2137703","2136951","NA","NA","2134688","2138971","716","NA","NA","2134686","2143660","NA","2134686","1846616","NA","2134689","718","New experiment","NA","0","0","0","yes","1024"
"undefined","undefined","undefined","undefined","black","no","legacy","0","uniform","undefined","undefined","undefined","45","45","91","45","45","NA","45","45","0","0","0","45","45","0","45","0","NA","45","0","Thu 30 May 2019 11:39:47 AM PDT","500","1000","The main experiment item","yes","NA","ABX_v3.osexp","/home/ubuntu/Desktop/panara","yes","no","mono","no","18","no","white","no","yes","768","45","45","/home/ubuntu/Desktop/panara/subject-704.csv","Jazzy James","3.1.3","3.1.5.wav","3.1.3.wav","3.1.3.wav","0","0","NA","0","NA","3301","NA","3301","NA","1845897","o","2","1024","2","48000","-16","experiment","3.1.3.wav","3.1.5.wav","3.1.3.wav","704","even","2144805","2147347","2146846","2146096","NA","NA","2143805","2148093","716","NA","NA","2143802","2151394","NA","2143802","1846616","NA","2143805","718","New experiment","NA","0","0","0","yes","1024"
"undefined","undefined","undefined","undefined","black","no","legacy","0","uniform","undefined","undefined","undefined","46","46","93","46","46","NA","46","46","0","0","0","46","46","0","46","0","NA","46","0","Thu 30 May 2019 11:39:47 AM PDT","500","1000","The main experiment item","yes","NA","ABX_v3.osexp","/home/ubuntu/Desktop/panara","no","no","mono","no","18","no","white","no","yes","768","46","46","/home/ubuntu/Desktop/panara/subject-704.csv","Jazzy James","3.1.3","1.2.1.wav","1.2.1.wav","1.2.3.wav","0","1","NA","1","NA","948","NA","948","NA","1845897","o","2","1024","2","48000","-16","experiment","1.2.1.wav","1.2.3.wav","1.2.1.wav","704","even","2152570","2155126","2154626","2153847","NA","NA","2151570","2155910","716","NA","NA","2151567","2156859","NA","2151567","1846616","NA","2151570","718","New experiment","NA","0","0","0","yes","1024"
"undefined","undefined","undefined","undefined","black","no","legacy","0","uniform","undefined","undefined","undefined","47","47","95","47","47","NA","47","47","0","0","0","47","47","0","47","0","NA","47","0","Thu 30 May 2019 11:39:47 AM PDT","500","1000","The main experiment item","yes","NA","ABX_v3.osexp","/home/ubuntu/Desktop/panara","yes","no","mono","no","18","no","white","no","yes","768","47","47","/home/ubuntu/Desktop/panara/subject-704.csv","Jazzy James","3.1.3","1.1.5.wav","1.1.5.wav","1.1.3.wav","0","1","NA","1","NA","544","NA","544","NA","1845897","o","2","1024","2","48000","-16","experiment","1.1.3.wav","1.1.5.wav","1.1.5.wav","704","even","2158037","2160557","2160057","2159285","NA","NA","2157037","2161370","716","NA","NA","2157035","2161914","NA","2157035","1846616","NA","2157037","718","New experiment","NA","0","0","0","yes","1024"
"undefined","undefined","undefined","undefined","black","no","legacy","0","uniform","undefined","undefined","undefined","48","48","97","48","48","NA","48","48","0","0","0","48","48","0","48","0","NA","48","0","Thu 30 May 2019 11:39:47 AM PDT","500","1000","The main experiment item","yes","NA","ABX_v3.osexp","/home/ubuntu/Desktop/panara","no","no","mono","no","18","no","white","no","yes","768","48","48","/home/ubuntu/Desktop/panara/subject-704.csv","Jazzy James","3.1.3","3.2.2.wav","3.2.4.wav","3.2.4.wav","0","0","NA","0","NA","1964","NA","1964","NA","1845897","o","2","1024","2","48000","-16","experiment","3.2.2.wav","3.2.4.wav","3.2.4.wav","704","even","2163092","2165635","2165135","2164386","NA","NA","2162091","2166388","716","NA","NA","2162089","2168353","NA","2162089","1846616","NA","2162092","718","New experiment","NA","0","0","0","yes","1024"
"undefined","undefined","undefined","undefined","black","no","legacy","0","uniform","undefined","undefined","undefined","49","49","99","49","49","NA","49","49","0","0","0","49","49","0","49","0","NA","49","0","Thu 30 May 2019 11:39:47 AM PDT","500","1000","The main experiment item","yes","NA","ABX_v3.osexp","/home/ubuntu/Desktop/panara","no","no","mono","no","18","no","white","no","yes","768","49","49","/home/ubuntu/Desktop/panara/subject-704.csv","Jazzy James","3.1.3","1.1.1.wav","1.1.3.wav","1.1.3.wav","0","1","NA","1","NA","1054","NA","1054","NA","1845897","o","2","1024","2","48000","-16","experiment","1.1.1.wav","1.1.3.wav","1.1.3.wav","704","even","2169502","2172092","2171592","2170805","NA","NA","2168501","2172867","716","NA","NA","2168499","2173922","NA","2168499","1846616","NA","2168502","718","New experiment","NA","0","0","0","yes","1024"
"undefined","undefined","undefined","undefined","black","no","legacy","0","uniform","undefined","undefined","undefined","50","50","101","50","50","NA","50","50","0","0","0","50","50","0","50","0","NA","50","0","Thu 30 May 2019 11:39:47 AM PDT","500","1000","The main experiment item","yes","NA","ABX_v3.osexp","/home/ubuntu/Desktop/panara","no","no","mono","no","18","no","white","no","yes","768","50","50","/home/ubuntu/Desktop/panara/subject-704.csv","Jazzy James","3.1.3","1.1.1.wav","1.1.1.wav","1.1.3.wav","0","0","return","0","NA","2786","7964","2786","NA","1845897","o","2","1024","2","48000","-16","experiment","1.1.1.wav","1.1.3.wav","1.1.1.wav","704","even","2183067","2185674","2185174","2184365","2174100","NA","2182067","2186477","716","NA","NA","2174097","2189264","NA","2174097","1846616","NA","2182067","718","New experiment","NA","0","0","0","yes","1024"
"undefined","undefined","undefined","undefined","black","no","legacy","0","uniform","undefined","undefined","undefined","51","51","103","51","51","NA","51","51","0","0","0","51","51","0","51","0","NA","51","0","Thu 30 May 2019 11:39:47 AM PDT","500","1000","The main experiment item","yes","NA","ABX_v3.osexp","/home/ubuntu/Desktop/panara","no","no","mono","no","18","no","white","no","yes","768","51","51","/home/ubuntu/Desktop/panara/subject-704.csv","Jazzy James","3.1.3","3.2.1.wav","3.2.1.wav","3.2.3.wav","0","1","return","1","NA","1117","7964","1117","NA","1845897","o","2","1024","2","48000","-16","experiment","3.2.1.wav","3.2.3.wav","3.2.1.wav","704","even","2190454","2192961","2192461","2191708","2174100","NA","2189453","2193715","716","NA","NA","2189451","2194832","NA","2189451","1846616","NA","2189454","718","New experiment","NA","0","0","0","yes","1024"
"undefined","undefined","undefined","undefined","black","no","legacy","0","uniform","undefined","undefined","undefined","52","52","105","52","52","NA","52","52","0","0","0","52","52","0","52","0","NA","52","0","Thu 30 May 2019 11:39:47 AM PDT","500","1000","The main experiment item","yes","NA","ABX_v3.osexp","/home/ubuntu/Desktop/panara","no","no","mono","no","18","no","white","no","yes","768","52","52","/home/ubuntu/Desktop/panara/subject-704.csv","Jazzy James","3.1.3","4.2.3.wav","4.2.3.wav","4.2.5.wav","0","1","return","1","NA","636","7964","636","NA","1845897","o","2","1024","2","48000","-16","experiment","4.2.3.wav","4.2.5.wav","4.2.3.wav","704","even","2195997","2198507","2198007","2197258","2174100","NA","2194997","2199235","716","NA","NA","2194995","2199872","NA","2194995","1846616","NA","2194997","718","New experiment","NA","0","0","0","yes","1024"
"undefined","undefined","undefined","undefined","black","no","legacy","0","uniform","undefined","undefined","undefined","53","53","107","53","53","NA","53","53","0","0","0","53","53","0","53","0","NA","53","0","Thu 30 May 2019 11:39:47 AM PDT","500","1000","The main experiment item","yes","NA","ABX_v3.osexp","/home/ubuntu/Desktop/panara","yes","no","mono","no","18","no","white","no","yes","768","53","53","/home/ubuntu/Desktop/panara/subject-704.csv","Jazzy James","3.1.3","5.2.3.wav","5.2.1.wav","5.2.1.wav","0","1","return","1","NA","796","7964","796","NA","1845897","o","2","1024","2","48000","-16","experiment","5.2.1.wav","5.2.3.wav","5.2.1.wav","704","even","2201036","2203478","2202978","2202256","2174100","NA","2200035","2204203","716","NA","NA","2200033","2205000","NA","2200033","1846616","NA","2200036","718","New experiment","NA","0","0","0","yes","1024"
"undefined","undefined","undefined","undefined","black","no","legacy","0","uniform","undefined","undefined","undefined","54","54","109","54","54","NA","54","54","0","0","0","54","54","0","54","0","NA","54","0","Thu 30 May 2019 11:39:47 AM PDT","500","1000","The main experiment item","yes","NA","ABX_v3.osexp","/home/ubuntu/Desktop/panara","no","no","mono","no","18","no","white","no","yes","768","0","53","/home/ubuntu/Desktop/panara/subject-704.csv","Jazzy James","3.1.3","1.1.3.wav","1.2.3.wav","1.2.5.wav","0","1","return","1","NA","1415","7964","1415","NA","1845897","o","2","1024","2","48000","-16","experiment","1.1.3.wav","1.2.5.wav","1.2.3.wav","704","even","2206205","2208775","2208275","2207511","2174100","NA","2205204","2209560","716","NA","NA","2205202","2210975","2205134","2205202","1846616","NA","2205205","718","New experiment","NA","0","0","0","yes","1024"
"undefined","undefined","undefined","undefined","black","no","legacy","0","uniform","undefined","undefined","undefined","55","55","111","55","55","NA","55","55","0","0","0","55","55","0","55","0","NA","55","0","Thu 30 May 2019 11:39:47 AM PDT","500","1000","The main experiment item","yes","NA","ABX_v3.osexp","/home/ubuntu/Desktop/panara","no","no","mono","no","18","no","white","no","yes","768","1","53","/home/ubuntu/Desktop/panara/subject-704.csv","Jazzy James","3.1.3","2.1.2.wav","4.1.2.wav","4.1.4.wav","0","1","return","1","NA","2106","7964","2106","NA","1845897","o","2","1024","2","48000","-16","experiment","2.1.2.wav","4.1.4.wav","4.1.2.wav","704","even","2212167","2214620","2214120","2213411","2174100","NA","2211167","2215339","716","NA","NA","2211165","2217446","2205134","2211165","1846616","NA","2211167","718","New experiment","NA","0","0","0","yes","1024"
"undefined","undefined","undefined","undefined","black","no","legacy","0","uniform","undefined","undefined","undefined","56","56","113","56","56","NA","56","56","0","0","0","56","56","0","56","0","NA","56","0","Thu 30 May 2019 11:39:47 AM PDT","500","1000","The main experiment item","yes","NA","ABX_v3.osexp","/home/ubuntu/Desktop/panara","yes","no","mono","no","18","no","white","no","yes","768","2","53","/home/ubuntu/Desktop/panara/subject-704.csv","Jazzy James","3.1.3","4.1.5.wav","3.1.5.wav","3.1.3.wav","0","1","return","1","NA","3471","7964","3471","NA","1845897","o","2","1024","2","48000","-16","experiment","3.1.3.wav","4.1.5.wav","3.1.5.wav","704","even","2218645","2221150","2220650","2219874","2174100","NA","2217645","2221902","716","NA","NA","2217643","2225373","2205134","2217643","1846616","NA","2217645","718","New experiment","NA","0","0","0","yes","1024"
"undefined","undefined","undefined","undefined","black","no","legacy","0","uniform","undefined","undefined","undefined","57","57","115","57","57","NA","57","57","0","0","0","57","57","0","57","0","NA","57","0","Thu 30 May 2019 11:39:47 AM PDT","500","1000","The main experiment item","yes","NA","ABX_v3.osexp","/home/ubuntu/Desktop/panara","no","no","mono","no","18","no","white","no","yes","768","3","53","/home/ubuntu/Desktop/panara/subject-704.csv","Jazzy James","3.1.3","4.2.3.wav","4.2.5.wav","3.2.5.wav","0","0","return","0","NA","762","7964","762","NA","1845897","o","2","1024","2","48000","-16","experiment","4.2.3.wav","3.2.5.wav","4.2.5.wav","704","even","2226538","2229026","2228526","2227804","2174100","NA","2225538","2229803","716","NA","NA","2225536","2230566","2205134","2225536","1846616","NA","2225538","718","New experiment","NA","0","0","0","yes","1024"
"undefined","undefined","undefined","undefined","black","no","legacy","0","uniform","undefined","undefined","undefined","58","58","117","58","58","NA","58","58","0","0","0","58","58","0","58","0","NA","58","0","Thu 30 May 2019 11:39:47 AM PDT","500","1000","The main experiment item","yes","NA","ABX_v3.osexp","/home/ubuntu/Desktop/panara","yes","no","mono","no","18","no","white","no","yes","768","4","53","/home/ubuntu/Desktop/panara/subject-704.csv","Jazzy James","3.1.3","1.1.3.wav","1.1.1.wav","3.1.1.wav","0","0","return","0","NA","932","7964","932","NA","1845897","o","2","1024","2","48000","-16","experiment","3.1.1.wav","1.1.3.wav","1.1.1.wav","704","even","2231718","2234311","2233811","2233030","2174100","NA","2230718","2235049","716","NA","NA","2230715","2235982","2205134","2230715","1846616","NA","2230718","718","New experiment","NA","0","0","0","yes","1024"
"undefined","undefined","undefined","undefined","black","no","legacy","0","uniform","undefined","undefined","undefined","59","59","119","59","59","NA","59","59","0","0","0","59","59","0","59","0","NA","59","0","Thu 30 May 2019 11:39:47 AM PDT","500","1000","The main experiment item","yes","NA","ABX_v3.osexp","/home/ubuntu/Desktop/panara","yes","no","mono","no","18","no","white","no","yes","768","5","53","/home/ubuntu/Desktop/panara/subject-704.csv","Jazzy James","3.1.3","1.2.5.wav","2.2.5.wav","2.2.3.wav","0","0","return","0","NA","964","7964","964","NA","1845897","o","2","1024","2","48000","-16","experiment","2.2.3.wav","1.2.5.wav","2.2.5.wav","704","even","2237118","2239643","2239143","2238399","2174100","NA","2236118","2240368","716","NA","NA","2236115","2241332","2205134","2236115","1846616","NA","2236118","718","New experiment","NA","0","0","0","yes","1024"
"undefined","undefined","undefined","undefined","black","no","legacy","0","uniform","undefined","undefined","undefined","60","60","121","60","60","NA","60","60","0","0","0","60","60","0","60","0","NA","60","0","Thu 30 May 2019 11:39:47 AM PDT","500","1000","The main experiment item","yes","NA","ABX_v3.osexp","/home/ubuntu/Desktop/panara","no","no","mono","no","18","no","white","no","yes","768","6","53","/home/ubuntu/Desktop/panara/subject-704.csv","Jazzy James","3.1.3","1.2.3.wav","1.2.5.wav","1.1.5.wav","0","0","return","0","NA","1142","7964","1142","NA","1845897","o","2","1024","2","48000","-16","experiment","1.2.3.wav","1.1.5.wav","1.2.5.wav","704","even","2242530","2245119","2244619","2243824","2174100","NA","2241529","2245901","716","NA","NA","2241527","2247044","2205134","2241527","1846616","NA","2241530","718","New experiment","NA","0","0","0","yes","1024"
"undefined","undefined","undefined","undefined","black","no","legacy","0","uniform","undefined","undefined","undefined","61","61","123","61","61","NA","61","61","0","0","0","61","61","0","61","0","NA","61","0","Thu 30 May 2019 11:39:47 AM PDT","500","1000","The main experiment item","yes","NA","ABX_v3.osexp","/home/ubuntu/Desktop/panara","yes","no","mono","no","18","no","white","no","yes","768","7","53","/home/ubuntu/Desktop/panara/subject-704.csv","Jazzy James","3.1.3","3.1.5.wav","1.1.5.wav","1.1.3.wav","0","0","return","0","NA","1123","7964","1123","NA","1845897","o","2","1024","2","48000","-16","experiment","1.1.3.wav","3.1.5.wav","1.1.5.wav","704","even","2248228","2250784","2250284","2249512","2174100","NA","2247227","2251561","716","NA","NA","2247224","2252684","2205134","2247224","1846616","NA","2247228","718","New experiment","NA","0","0","0","yes","1024"
"undefined","undefined","undefined","undefined","black","no","legacy","0","uniform","undefined","undefined","undefined","62","62","125","62","62","NA","62","62","0","0","0","62","62","0","62","0","NA","62","0","Thu 30 May 2019 11:39:47 AM PDT","500","1000","The main experiment item","yes","NA","ABX_v3.osexp","/home/ubuntu/Desktop/panara","no","no","mono","no","18","no","white","no","yes","768","8","53","/home/ubuntu/Desktop/panara/subject-704.csv","Jazzy James","3.1.3","1.2.3.wav","1.2.5.wav","3.2.5.wav","0","1","return","1","NA","901","7964","901","NA","1845897","o","2","1024","2","48000","-16","experiment","1.2.3.wav","3.2.5.wav","1.2.5.wav","704","even","2253833","2256369","2255869","2255101","2174100","NA","2252832","2257142","716","NA","NA","2252830","2258043","2205134","2252830","1846616","NA","2252833","718","New experiment","NA","0","0","0","yes","1024"
"undefined","undefined","undefined","undefined","black","no","legacy","0","uniform","undefined","undefined","undefined","63","63","127","63","63","NA","63","63","0","0","0","63","63","0","63","0","NA","63","0","Thu 30 May 2019 11:39:47 AM PDT","500","1000","The main experiment item","yes","NA","ABX_v3.osexp","/home/ubuntu/Desktop/panara","yes","no","mono","no","18","no","white","no","yes","768","9","53","/home/ubuntu/Desktop/panara/subject-704.csv","Jazzy James","3.1.3","4.2.3.wav","4.1.3.wav","4.1.1.wav","0","1","return","1","NA","2224","7964","2224","NA","1845897","o","2","1024","2","48000","-16","experiment","4.1.1.wav","4.2.3.wav","4.1.3.wav","704","even","2259197","2261679","2261179","2260456","2174100","NA","2258197","2262403","716","NA","NA","2258194","2264628","2205134","2258194","1846616","NA","2258197","718","New experiment","NA","0","0","0","yes","1024"
"undefined","undefined","undefined","undefined","black","no","legacy","0","uniform","undefined","undefined","undefined","64","64","129","64","64","NA","64","64","0","0","0","64","64","0","64","0","NA","64","0","Thu 30 May 2019 11:39:47 AM PDT","500","1000","The main experiment item","yes","NA","ABX_v3.osexp","/home/ubuntu/Desktop/panara","yes","no","mono","no","18","no","white","no","yes","768","10","53","/home/ubuntu/Desktop/panara/subject-704.csv","Jazzy James","3.1.3","2.2.4.wav","2.2.2.wav","4.2.2.wav","0","0","return","0","NA","2736","7964","2736","NA","1845897","o","2","1024","2","48000","-16","experiment","4.2.2.wav","2.2.4.wav","2.2.2.wav","704","even","2265794","2268271","2267771","2267049","2174100","NA","2264794","2269011","716","NA","NA","2264791","2271747","2205134","2264791","1846616","NA","2264794","718","New experiment","NA","0","0","0","yes","1024"
"undefined","undefined","undefined","undefined","black","no","legacy","0","uniform","undefined","undefined","undefined","65","65","131","65","65","NA","65","65","0","0","0","65","65","0","65","0","NA","65","0","Thu 30 May 2019 11:39:47 AM PDT","500","1000","The main experiment item","yes","NA","ABX_v3.osexp","/home/ubuntu/Desktop/panara","no","no","mono","no","18","no","white","no","yes","768","11","53","/home/ubuntu/Desktop/panara/subject-704.csv","Jazzy James","3.1.3","2.1.2.wav","2.1.4.wav","4.1.4.wav","0","0","return","0","NA","1461","7964","1461","NA","1845897","o","2","1024","2","48000","-16","experiment","2.1.2.wav","4.1.4.wav","2.1.4.wav","704","even","2272870","2275346","2274846","2274095","2174100","NA","2271869","2276093","716","NA","NA","2271866","2277555","2205134","2271866","1846616","NA","2271870","718","New experiment","NA","0","0","0","yes","1024"
"undefined","undefined","undefined","undefined","black","no","legacy","0","uniform","undefined","undefined","undefined","66","66","133","66","66","NA","66","66","0","0","0","66","66","0","66","0","NA","66","0","Thu 30 May 2019 11:39:47 AM PDT","500","1000","The main experiment item","yes","NA","ABX_v3.osexp","/home/ubuntu/Desktop/panara","yes","no","mono","no","18","no","white","no","yes","768","12","53","/home/ubuntu/Desktop/panara/subject-704.csv","Jazzy James","3.1.3","4.1.4.wav","3.1.4.wav","3.1.2.wav","0","0","return","0","NA","2511","7964","2511","NA","1845897","o","2","1024","2","48000","-16","experiment","3.1.2.wav","4.1.4.wav","3.1.4.wav","704","even","2278718","2281264","2280764","2279982","2174100","NA","2277718","2282043","716","NA","NA","2277715","2284554","2205134","2277715","1846616","NA","2277718","718","New experiment","NA","0","0","0","yes","1024"
"undefined","undefined","undefined","undefined","black","no","legacy","0","uniform","undefined","undefined","undefined","67","67","135","67","67","NA","67","67","0","0","0","67","67","0","67","0","NA","67","0","Thu 30 May 2019 11:39:47 AM PDT","500","1000","The main experiment item","yes","NA","ABX_v3.osexp","/home/ubuntu/Desktop/panara","yes","no","mono","no","18","no","white","no","yes","768","13","53","/home/ubuntu/Desktop/panara/subject-704.csv","Jazzy James","3.1.3","1.2.3.wav","1.2.1.wav","3.2.1.wav","0","0","return","0","NA","2279","7964","2279","NA","1845897","o","2","1024","2","48000","-16","experiment","3.2.1.wav","1.2.3.wav","1.2.1.wav","704","even","2285697","2288263","2287763","2286978","2174100","NA","2284697","2289033","716","NA","NA","2284694","2291313","2205134","2284694","1846616","NA","2284697","718","New experiment","NA","0","0","0","yes","1024"
"undefined","undefined","undefined","undefined","black","no","legacy","0","uniform","undefined","undefined","undefined","68","68","137","68","68","NA","68","68","0","0","0","68","68","0","68","0","NA","68","0","Thu 30 May 2019 11:39:47 AM PDT","500","1000","The main experiment item","yes","NA","ABX_v3.osexp","/home/ubuntu/Desktop/panara","yes","no","mono","no","18","no","white","no","yes","768","14","53","/home/ubuntu/Desktop/panara/subject-704.csv","Jazzy James","3.1.3","1.1.5.wav","2.1.5.wav","2.1.3.wav","0","0","return","0","NA","905","7964","905","NA","1845897","o","2","1024","2","48000","-16","experiment","2.1.3.wav","1.1.5.wav","2.1.5.wav","704","even","2292484","2295005","2294505","2293754","2174100","NA","2291484","2295760","716","NA","NA","2291481","2296666","2205134","2291481","1846616","NA","2291484","718","New experiment","NA","0","0","0","yes","1024"
"undefined","undefined","undefined","undefined","black","no","legacy","0","uniform","undefined","undefined","undefined","69","69","139","69","69","NA","69","69","0","0","0","69","69","0","69","0","NA","69","0","Thu 30 May 2019 11:39:47 AM PDT","500","1000","The main experiment item","yes","NA","ABX_v3.osexp","/home/ubuntu/Desktop/panara","yes","no","mono","no","18","no","white","no","yes","768","15","53","/home/ubuntu/Desktop/panara/subject-704.csv","Jazzy James","3.1.3","1.2.5.wav","1.1.5.wav","1.1.3.wav","0","0","return","0","NA","1256","7964","1256","NA","1845897","o","2","1024","2","48000","-16","experiment","1.1.3.wav","1.2.5.wav","1.1.5.wav","704","even","2297810","2300382","2299882","2299102","2174100","NA","2296810","2301192","716","NA","NA","2296807","2302448","2205134","2296807","1846616","NA","2296810","718","New experiment","NA","0","0","0","yes","1024"
"undefined","undefined","undefined","undefined","black","no","legacy","0","uniform","undefined","undefined","undefined","70","70","141","70","70","NA","70","70","0","0","0","70","70","0","70","0","NA","70","0","Thu 30 May 2019 11:39:47 AM PDT","500","1000","The main experiment item","yes","NA","ABX_v3.osexp","/home/ubuntu/Desktop/panara","no","no","mono","no","18","no","white","no","yes","768","16","53","/home/ubuntu/Desktop/panara/subject-704.csv","Jazzy James","3.1.3","2.1.3.wav","2.1.5.wav","4.1.5.wav","0","0","return","0","NA","877","7964","877","NA","1845897","o","2","1024","2","48000","-16","experiment","2.1.3.wav","4.1.5.wav","2.1.5.wav","704","even","2303624","2306135","2305635","2304889","2174100","NA","2302624","2306875","716","NA","NA","2302622","2307753","2205134","2302622","1846616","NA","2302624","718","New experiment","NA","0","0","0","yes","1024"
"undefined","undefined","undefined","undefined","black","no","legacy","0","uniform","undefined","undefined","undefined","71","71","143","71","71","NA","71","71","0","0","0","71","71","0","71","0","NA","71","0","Thu 30 May 2019 11:39:47 AM PDT","500","1000","The main experiment item","yes","NA","ABX_v3.osexp","/home/ubuntu/Desktop/panara","yes","no","mono","no","18","no","white","no","yes","768","17","53","/home/ubuntu/Desktop/panara/subject-704.csv","Jazzy James","3.1.3","2.1.3.wav","4.1.3.wav","4.1.1.wav","0","0","return","0","NA","1479","7964","1479","NA","1845897","o","2","1024","2","48000","-16","experiment","4.1.1.wav","2.1.3.wav","4.1.3.wav","704","even","2308930","2311426","2310926","2310174","2174100","NA","2307930","2312185","716","NA","NA","2307928","2313665","2205134","2307928","1846616","NA","2307930","718","New experiment","NA","0","0","0","yes","1024"
"undefined","undefined","undefined","undefined","black","no","legacy","0","uniform","undefined","undefined","undefined","72","72","145","72","72","NA","72","72","0","0","0","72","72","0","72","0","NA","72","0","Thu 30 May 2019 11:39:47 AM PDT","500","1000","The main experiment item","yes","NA","ABX_v3.osexp","/home/ubuntu/Desktop/panara","no","no","mono","no","18","no","white","no","yes","768","18","53","/home/ubuntu/Desktop/panara/subject-704.csv","Jazzy James","3.1.3","4.2.1.wav","2.2.1.wav","2.2.3.wav","0","0","return","0","NA","1794","7964","1794","NA","1845897","o","2","1024","2","48000","-16","experiment","4.2.1.wav","2.2.3.wav","2.2.1.wav","704","even","2314843","2317277","2316777","2316055","2174100","NA","2313843","2318030","716","NA","NA","2313840","2319824","2205134","2313840","1846616","NA","2313843","718","New experiment","NA","0","0","0","yes","1024"
"undefined","undefined","undefined","undefined","black","no","legacy","0","uniform","undefined","undefined","undefined","73","73","147","73","73","NA","73","73","0","0","0","73","73","0","73","0","NA","73","0","Thu 30 May 2019 11:39:47 AM PDT","500","1000","The main experiment item","yes","NA","ABX_v3.osexp","/home/ubuntu/Desktop/panara","yes","no","mono","no","18","no","white","no","yes","768","19","53","/home/ubuntu/Desktop/panara/subject-704.csv","Jazzy James","3.1.3","3.1.5.wav","4.1.5.wav","4.1.3.wav","0","1","return","1","NA","1117","7964","1117","NA","1845897","o","2","1024","2","48000","-16","experiment","4.1.3.wav","3.1.5.wav","4.1.5.wav","704","even","2320999","2323500","2323000","2322276","2174100","NA","2319999","2324217","716","NA","NA","2319996","2325335","2205134","2319996","1846616","NA","2319999","718","New experiment","NA","0","0","0","yes","1024"
"undefined","undefined","undefined","undefined","black","no","legacy","0","uniform","undefined","undefined","undefined","74","74","149","74","74","NA","74","74","0","0","0","74","74","0","74","0","NA","74","0","Thu 30 May 2019 11:39:47 AM PDT","500","1000","The main experiment item","yes","NA","ABX_v3.osexp","/home/ubuntu/Desktop/panara","yes","no","mono","no","18","no","white","no","yes","768","20","53","/home/ubuntu/Desktop/panara/subject-704.csv","Jazzy James","3.1.3","2.1.3.wav","2.1.1.wav","1.1.1.wav","0","0","return","0","NA","1212","7964","1212","NA","1845897","o","2","1024","2","48000","-16","experiment","1.1.1.wav","2.1.3.wav","2.1.1.wav","704","even","2326520","2329030","2328530","2327778","2174100","NA","2325520","2329842","716","NA","NA","2325517","2331054","2205134","2325517","1846616","NA","2325520","718","New experiment","NA","0","0","0","yes","1024"
"undefined","undefined","undefined","undefined","black","no","legacy","0","uniform","undefined","undefined","undefined","75","75","151","75","75","NA","75","75","0","0","0","75","75","0","75","0","NA","75","0","Thu 30 May 2019 11:39:47 AM PDT","500","1000","The main experiment item","yes","NA","ABX_v3.osexp","/home/ubuntu/Desktop/panara","yes","no","mono","no","18","no","white","no","yes","768","21","53","/home/ubuntu/Desktop/panara/subject-704.csv","Jazzy James","3.1.3","2.2.4.wav","4.2.4.wav","4.2.2.wav","0","1","return","1","NA","1766","7964","1766","NA","1845897","o","2","1024","2","48000","-16","experiment","4.2.2.wav","2.2.4.wav","4.2.4.wav","704","even","2332245","2334683","2334183","2333461","2174100","NA","2331244","2335439","716","NA","NA","2331242","2337206","2205134","2331242","1846616","NA","2331245","718","New experiment","NA","0","0","0","yes","1024"
"undefined","undefined","undefined","undefined","black","no","legacy","0","uniform","undefined","undefined","undefined","76","76","153","76","76","NA","76","76","0","0","0","76","76","0","76","0","NA","76","0","Thu 30 May 2019 11:39:47 AM PDT","500","1000","The main experiment item","yes","NA","ABX_v3.osexp","/home/ubuntu/Desktop/panara","yes","no","mono","no","18","no","white","no","yes","768","22","53","/home/ubuntu/Desktop/panara/subject-704.csv","Jazzy James","3.1.3","1.2.3.wav","1.1.3.wav","1.1.1.wav","0","1","return","1","NA","1829","7964","1829","NA","1845897","o","2","1024","2","48000","-16","experiment","1.1.1.wav","1.2.3.wav","1.1.3.wav","704","even","2338356","2340948","2340448","2339648","2174100","NA","2337356","2341745","716","NA","NA","2337354","2343575","2205134","2337354","1846616","NA","2337356","718","New experiment","NA","0","0","0","yes","1024"
"undefined","undefined","undefined","undefined","black","no","legacy","0","uniform","undefined","undefined","undefined","77","77","155","77","77","NA","77","77","0","0","0","77","77","0","77","0","NA","77","0","Thu 30 May 2019 11:39:47 AM PDT","500","1000","The main experiment item","yes","NA","ABX_v3.osexp","/home/ubuntu/Desktop/panara","no","no","mono","no","18","no","white","no","yes","768","23","53","/home/ubuntu/Desktop/panara/subject-704.csv","Jazzy James","3.1.3","1.1.2.wav","1.2.2.wav","1.2.4.wav","0","0","return","0","NA","1108","7964","1108","NA","1845897","o","2","1024","2","48000","-16","experiment","1.1.2.wav","1.2.4.wav","1.2.2.wav","704","even","2344707","2347307","2346807","2346025","2174100","NA","2343707","2348057","716","NA","NA","2343705","2349165","2205134","2343705","1846616","NA","2343707","718","New experiment","NA","0","0","0","yes","1024"
"undefined","undefined","undefined","undefined","black","no","legacy","0","uniform","undefined","undefined","undefined","78","78","157","78","78","NA","78","78","0","0","0","78","78","0","78","0","NA","78","0","Thu 30 May 2019 11:39:47 AM PDT","500","1000","The main experiment item","yes","NA","ABX_v3.osexp","/home/ubuntu/Desktop/panara","yes","no","mono","no","18","no","white","no","yes","768","24","53","/home/ubuntu/Desktop/panara/subject-704.csv","Jazzy James","3.1.3","2.1.4.wav","2.1.2.wav","4.1.2.wav","0","1","return","1","NA","2936","7964","2936","NA","1845897","o","2","1024","2","48000","-16","experiment","4.1.2.wav","2.1.4.wav","2.1.2.wav","704","even","2350351","2352888","2352388","2351637","2174100","NA","2349351","2353613","716","NA","NA","2349348","2356550","2205134","2349348","1846616","NA","2349351","718","New experiment","NA","0","0","0","yes","1024"
"undefined","undefined","undefined","undefined","black","no","legacy","0","uniform","undefined","undefined","undefined","79","79","159","79","79","NA","79","79","0","0","0","79","79","0","79","0","NA","79","0","Thu 30 May 2019 11:39:47 AM PDT","500","1000","The main experiment item","yes","NA","ABX_v3.osexp","/home/ubuntu/Desktop/panara","no","no","mono","no","18","no","white","no","yes","768","25","53","/home/ubuntu/Desktop/panara/subject-704.csv","Jazzy James","3.1.3","4.2.3.wav","4.2.5.wav","2.2.5.wav","0","0","return","0","NA","855","7964","855","NA","1845897","o","2","1024","2","48000","-16","experiment","4.2.3.wav","2.2.5.wav","4.2.5.wav","704","even","2357700","2360192","2359691","2358937","2174100","NA","2356700","2360910","716","NA","NA","2356698","2361765","2205134","2356698","1846616","NA","2356700","718","New experiment","NA","0","0","0","yes","1024"
"undefined","undefined","undefined","undefined","black","no","legacy","0","uniform","undefined","undefined","undefined","80","80","161","80","80","NA","80","80","0","0","0","80","80","0","80","0","NA","80","0","Thu 30 May 2019 11:39:47 AM PDT","500","1000","The main experiment item","yes","NA","ABX_v3.osexp","/home/ubuntu/Desktop/panara","no","no","mono","no","18","no","white","no","yes","768","26","53","/home/ubuntu/Desktop/panara/subject-704.csv","Jazzy James","3.1.3","1.2.2.wav","1.2.4.wav","1.1.4.wav","0","0","return","0","NA","2573","7964","2573","NA","1845897","o","2","1024","2","48000","-16","experiment","1.2.2.wav","1.1.4.wav","1.2.4.wav","704","even","2362888","2365411","2364911","2364158","2174100","NA","2361888","2366183","716","NA","NA","2361885","2368757","2205134","2361885","1846616","NA","2361888","718","New experiment","NA","0","0","0","yes","1024"
"undefined","undefined","undefined","undefined","black","no","legacy","0","uniform","undefined","undefined","undefined","81","81","163","81","81","NA","81","81","0","0","0","81","81","0","81","0","NA","81","0","Thu 30 May 2019 11:39:47 AM PDT","500","1000","The main experiment item","yes","NA","ABX_v3.osexp","/home/ubuntu/Desktop/panara","yes","no","mono","no","18","no","white","no","yes","768","27","53","/home/ubuntu/Desktop/panara/subject-704.csv","Jazzy James","3.1.3","4.2.4.wav","4.2.2.wav","4.1.2.wav","0","0","return","0","NA","693","7964","693","NA","1845897","o","2","1024","2","48000","-16","experiment","4.1.2.wav","4.2.4.wav","4.2.2.wav","704","even","2369912","2372356","2371856","2371140","2174100","NA","2368912","2373095","716","NA","NA","2368909","2373789","2205134","2368909","1846616","NA","2368912","718","New experiment","NA","0","0","0","yes","1024"
"undefined","undefined","undefined","undefined","black","no","legacy","0","uniform","undefined","undefined","undefined","82","82","165","82","82","NA","82","82","0","0","0","82","82","0","82","0","NA","82","0","Thu 30 May 2019 11:39:47 AM PDT","500","1000","The main experiment item","yes","NA","ABX_v3.osexp","/home/ubuntu/Desktop/panara","yes","no","mono","no","18","no","white","no","yes","768","28","53","/home/ubuntu/Desktop/panara/subject-704.csv","Jazzy James","3.1.3","3.1.3.wav","3.1.1.wav","4.1.1.wav","0","1","return","1","NA","1253","7964","1253","NA","1845897","o","2","1024","2","48000","-16","experiment","4.1.1.wav","3.1.3.wav","3.1.1.wav","704","even","2374982","2377483","2376983","2376238","2174100","NA","2373982","2378230","716","NA","NA","2373979","2379483","2205134","2373979","1846616","NA","2373982","718","New experiment","NA","0","0","0","yes","1024"
"undefined","undefined","undefined","undefined","black","no","legacy","0","uniform","undefined","undefined","undefined","83","83","167","83","83","NA","83","83","0","0","0","83","83","0","83","0","NA","83","0","Thu 30 May 2019 11:39:47 AM PDT","500","1000","The main experiment item","yes","NA","ABX_v3.osexp","/home/ubuntu/Desktop/panara","yes","no","mono","no","18","no","white","no","yes","768","29","53","/home/ubuntu/Desktop/panara/subject-704.csv","Jazzy James","3.1.3","2.1.4.wav","2.1.2.wav","2.2.2.wav","0","0","return","0","NA","661","7964","661","NA","1845897","o","2","1024","2","48000","-16","experiment","2.2.2.wav","2.1.4.wav","2.1.2.wav","704","even","2380659","2383171","2382671","2381920","2174100","NA","2379659","2383926","716","NA","NA","2379656","2384588","2205134","2379656","1846616","NA","2379659","718","New experiment","NA","0","0","0","yes","1024"
"undefined","undefined","undefined","undefined","black","no","legacy","0","uniform","undefined","undefined","undefined","84","84","169","84","84","NA","84","84","0","0","0","84","84","0","84","0","NA","84","0","Thu 30 May 2019 11:39:47 AM PDT","500","1000","The main experiment item","yes","NA","ABX_v3.osexp","/home/ubuntu/Desktop/panara","no","no","mono","no","18","no","white","no","yes","768","30","53","/home/ubuntu/Desktop/panara/subject-704.csv","Jazzy James","3.1.3","1.2.1.wav","1.2.3.wav","2.2.3.wav","0","1","return","1","NA","2074","7964","2074","NA","1845897","o","2","1024","2","48000","-16","experiment","1.2.1.wav","2.2.3.wav","1.2.3.wav","704","even","2385773","2388348","2387848","2387070","2174100","NA","2384773","2389072","716","NA","NA","2384770","2391147","2205134","2384770","1846616","NA","2384773","718","New experiment","NA","0","0","0","yes","1024"
"undefined","undefined","undefined","undefined","black","no","legacy","0","uniform","undefined","undefined","undefined","85","85","171","85","85","NA","85","85","0","0","0","85","85","0","85","0","NA","85","0","Thu 30 May 2019 11:39:47 AM PDT","500","1000","The main experiment item","yes","NA","ABX_v3.osexp","/home/ubuntu/Desktop/panara","no","no","mono","no","18","no","white","no","yes","768","31","53","/home/ubuntu/Desktop/panara/subject-704.csv","Jazzy James","3.1.3","4.2.2.wav","4.1.2.wav","4.1.4.wav","0","1","return","1","NA","694","7964","694","NA","1845897","o","2","1024","2","48000","-16","experiment","4.2.2.wav","4.1.4.wav","4.1.2.wav","704","even","2392306","2394768","2394268","2393554","2174100","NA","2391306","2395508","716","NA","NA","2391303","2396202","2205134","2391303","1846616","NA","2391306","718","New experiment","NA","0","0","0","yes","1024"
"undefined","undefined","undefined","undefined","black","no","legacy","0","uniform","undefined","undefined","undefined","86","86","173","86","86","NA","86","86","0","0","0","86","86","0","86","0","NA","86","0","Thu 30 May 2019 11:39:47 AM PDT","500","1000","The main experiment item","yes","NA","ABX_v3.osexp","/home/ubuntu/Desktop/panara","yes","no","mono","no","18","no","white","no","yes","768","32","53","/home/ubuntu/Desktop/panara/subject-704.csv","Jazzy James","3.1.3","1.2.3.wav","2.2.3.wav","2.2.1.wav","0","0","return","0","NA","569","7964","569","NA","1845897","o","2","1024","2","48000","-16","experiment","2.2.1.wav","1.2.3.wav","2.2.3.wav","704","even","2397363","2399868","2399368","2398651","2174100","NA","2396362","2400592","716","NA","NA","2396359","2401162","2205134","2396359","1846616","NA","2396363","718","New experiment","NA","0","0","0","yes","1024"
"undefined","undefined","undefined","undefined","black","no","legacy","0","uniform","undefined","undefined","undefined","87","87","175","87","87","NA","87","87","0","0","0","87","87","0","87","0","NA","87","0","Thu 30 May 2019 11:39:47 AM PDT","500","1000","The main experiment item","yes","NA","ABX_v3.osexp","/home/ubuntu/Desktop/panara","yes","no","mono","no","18","no","white","no","yes","768","33","53","/home/ubuntu/Desktop/panara/subject-704.csv","Jazzy James","3.1.3","1.2.5.wav","1.2.3.wav","2.2.3.wav","0","1","return","1","NA","825","7964","825","NA","1845897","o","2","1024","2","48000","-16","experiment","2.2.3.wav","1.2.5.wav","1.2.3.wav","704","even","2402345","2404937","2404437","2403642","2174100","NA","2401345","2405664","716","NA","NA","2401342","2406490","2205134","2401342","1846616","NA","2401345","718","New experiment","NA","0","0","0","yes","1024"
"undefined","undefined","undefined","undefined","black","no","legacy","0","uniform","undefined","undefined","undefined","88","88","177","88","88","NA","88","88","0","0","0","88","88","0","88","0","NA","88","0","Thu 30 May 2019 11:39:47 AM PDT","500","1000","The main experiment item","yes","NA","ABX_v3.osexp","/home/ubuntu/Desktop/panara","yes","no","mono","no","18","no","white","no","yes","768","34","53","/home/ubuntu/Desktop/panara/subject-704.csv","Jazzy James","3.1.3","1.1.4.wav","2.1.4.wav","2.1.2.wav","0","1","return","1","NA","1867","7964","1867","NA","1845897","o","2","1024","2","48000","-16","experiment","2.1.2.wav","1.1.4.wav","2.1.4.wav","704","even","2407647","2410172","2409672","2408918","2174100","NA","2406647","2410926","716","NA","NA","2406645","2412794","2205134","2406645","1846616","NA","2406647","718","New experiment","NA","0","0","0","yes","1024"
"undefined","undefined","undefined","undefined","black","no","legacy","0","uniform","undefined","undefined","undefined","89","89","179","89","89","NA","89","89","0","0","0","89","89","0","89","0","NA","89","0","Thu 30 May 2019 11:39:47 AM PDT","500","1000","The main experiment item","yes","NA","ABX_v3.osexp","/home/ubuntu/Desktop/panara","yes","no","mono","no","18","no","white","no","yes","768","35","53","/home/ubuntu/Desktop/panara/subject-704.csv","Jazzy James","3.1.3","3.2.3.wav","3.2.1.wav","4.2.1.wav","0","1","return","1","NA","660","7964","660","NA","1845897","o","2","1024","2","48000","-16","experiment","4.2.1.wav","3.2.3.wav","3.2.1.wav","704","even","2413973","2416465","2415965","2415212","2174100","NA","2412973","2417189","716","NA","NA","2412970","2417850","2205134","2412970","1846616","NA","2412973","718","New experiment","NA","0","0","0","yes","1024"
"undefined","undefined","undefined","undefined","black","no","legacy","0","uniform","undefined","undefined","undefined","90","90","181","90","90","NA","90","90","0","0","0","90","90","0","90","0","NA","90","0","Thu 30 May 2019 11:39:47 AM PDT","500","1000","The main experiment item","yes","NA","ABX_v3.osexp","/home/ubuntu/Desktop/panara","no","no","mono","no","18","no","white","no","yes","768","36","53","/home/ubuntu/Desktop/panara/subject-704.csv","Jazzy James","3.1.3","1.1.1.wav","1.1.3.wav","3.1.3.wav","0","0","return","0","NA","1211","7964","1211","NA","1845897","o","2","1024","2","48000","-16","experiment","1.1.1.wav","3.1.3.wav","1.1.3.wav","704","even","2419006","2421583","2421083","2420304","2174100","NA","2418006","2422350","716","NA","NA","2418003","2423562","2205134","2418003","1846616","NA","2418006","718","New experiment","NA","0","0","0","yes","1024"
"undefined","undefined","undefined","undefined","black","no","legacy","0","uniform","undefined","undefined","undefined","91","91","183","91","91","NA","91","91","0","0","0","91","91","0","91","0","NA","91","0","Thu 30 May 2019 11:39:47 AM PDT","500","1000","The main experiment item","yes","NA","ABX_v3.osexp","/home/ubuntu/Desktop/panara","no","no","mono","no","18","no","white","no","yes","768","37","53","/home/ubuntu/Desktop/panara/subject-704.csv","Jazzy James","3.1.3","1.1.3.wav","3.1.3.wav","3.1.5.wav","0","0","return","0","NA","1558","7964","1558","NA","1845897","o","2","1024","2","48000","-16","experiment","1.1.3.wav","3.1.5.wav","3.1.3.wav","704","even","2424746","2427301","2426801","2426026","2174100","NA","2423746","2428082","716","NA","NA","2423743","2429641","2205134","2423743","1846616","NA","2423746","718","New experiment","NA","0","0","0","yes","1024"
"undefined","undefined","undefined","undefined","black","no","legacy","0","uniform","undefined","undefined","undefined","92","92","185","92","92","NA","92","92","0","0","0","92","92","0","92","0","NA","92","0","Thu 30 May 2019 11:39:47 AM PDT","500","1000","The main experiment item","yes","NA","ABX_v3.osexp","/home/ubuntu/Desktop/panara","yes","no","mono","no","18","no","white","no","yes","768","38","53","/home/ubuntu/Desktop/panara/subject-704.csv","Jazzy James","3.1.3","1.1.5.wav","1.1.3.wav","1.2.3.wav","0","0","return","0","NA","2249","7964","2249","NA","1845897","o","2","1024","2","48000","-16","experiment","1.2.3.wav","1.1.5.wav","1.1.3.wav","704","even","2430812","2433359","2432859","2432079","2174100","NA","2429812","2434134","716","NA","NA","2429809","2436384","2205134","2429809","1846616","NA","2429812","718","New experiment","NA","0","0","0","yes","1024"
"undefined","undefined","undefined","undefined","black","no","legacy","0","uniform","undefined","undefined","undefined","93","93","187","93","93","NA","93","93","0","0","0","93","93","0","93","0","NA","93","0","Thu 30 May 2019 11:39:47 AM PDT","500","1000","The main experiment item","yes","NA","ABX_v3.osexp","/home/ubuntu/Desktop/panara","no","no","mono","no","18","no","white","no","yes","768","39","53","/home/ubuntu/Desktop/panara/subject-704.csv","Jazzy James","3.1.3","2.2.2.wav","2.2.4.wav","2.1.4.wav","0","1","return","1","NA","4114","7964","4114","NA","1845897","o","2","1024","2","48000","-16","experiment","2.2.2.wav","2.1.4.wav","2.2.4.wav","704","even","2437526","2439977","2439477","2438756","2174100","NA","2436526","2440733","716","NA","NA","2436523","2444848","2205134","2436523","1846616","NA","2436526","718","New experiment","NA","0","0","0","yes","1024"
"undefined","undefined","undefined","undefined","black","no","legacy","0","uniform","undefined","undefined","undefined","94","94","189","94","94","NA","94","94","0","0","0","94","94","0","94","0","NA","94","0","Thu 30 May 2019 11:39:47 AM PDT","500","1000","The main experiment item","yes","NA","ABX_v3.osexp","/home/ubuntu/Desktop/panara","yes","no","mono","no","18","no","white","no","yes","768","40","53","/home/ubuntu/Desktop/panara/subject-704.csv","Jazzy James","3.1.3","4.2.4.wav","4.2.2.wav","3.2.2.wav","0","0","return","0","NA","2166","7964","2166","NA","1845897","o","2","1024","2","48000","-16","experiment","3.2.2.wav","4.2.4.wav","4.2.2.wav","704","even","2446017","2448505","2448005","2447252","2174100","NA","2445017","2449272","716","NA","NA","2445014","2451439","2205134","2445014","1846616","NA","2445017","718","New experiment","NA","0","0","0","yes","1024"
"undefined","undefined","undefined","undefined","black","no","legacy","0","uniform","undefined","undefined","undefined","95","95","191","95","95","NA","95","95","0","0","0","95","95","0","95","0","NA","95","0","Thu 30 May 2019 11:39:47 AM PDT","500","1000","The main experiment item","yes","NA","ABX_v3.osexp","/home/ubuntu/Desktop/panara","no","no","mono","no","18","no","white","no","yes","768","41","53","/home/ubuntu/Desktop/panara/subject-704.csv","Jazzy James","3.1.3","1.2.2.wav","1.1.2.wav","1.1.4.wav","0","0","return","0","NA","1193","7964","1193","NA","1845897","o","2","1024","2","48000","-16","experiment","1.2.2.wav","1.1.4.wav","1.1.2.wav","704","even","2452583","2455138","2454638","2453860","2174100","NA","2451583","2455901","716","NA","NA","2451580","2457094","2205134","2451580","1846616","NA","2451583","718","New experiment","NA","0","0","0","yes","1024"
"undefined","undefined","undefined","undefined","black","no","legacy","0","uniform","undefined","undefined","undefined","96","96","193","96","96","NA","96","96","0","0","0","96","96","0","96","0","NA","96","0","Thu 30 May 2019 11:39:47 AM PDT","500","1000","The main experiment item","yes","NA","ABX_v3.osexp","/home/ubuntu/Desktop/panara","yes","no","mono","no","18","no","white","no","yes","768","42","53","/home/ubuntu/Desktop/panara/subject-704.csv","Jazzy James","3.1.3","3.1.5.wav","3.1.3.wav","4.1.3.wav","0","1","return","1","NA","507","7964","507","NA","1845897","o","2","1024","2","48000","-16","experiment","4.1.3.wav","3.1.5.wav","3.1.3.wav","704","even","2458276","2460798","2460298","2459546","2174100","NA","2457276","2461554","716","NA","NA","2457273","2462062","2205134","2457273","1846616","NA","2457276","718","New experiment","NA","0","0","0","yes","1024"
"undefined","undefined","undefined","undefined","black","no","legacy","0","uniform","undefined","undefined","undefined","97","97","195","97","97","NA","97","97","0","0","0","97","97","0","97","0","NA","97","0","Thu 30 May 2019 11:39:47 AM PDT","500","1000","The main experiment item","yes","NA","ABX_v3.osexp","/home/ubuntu/Desktop/panara","no","no","mono","no","18","no","white","no","yes","768","43","53","/home/ubuntu/Desktop/panara/subject-704.csv","Jazzy James","3.1.3","3.1.2.wav","3.1.4.wav","1.1.4.wav","0","1","return","1","NA","736","7964","736","NA","1845897","o","2","1024","2","48000","-16","experiment","3.1.2.wav","1.1.4.wav","3.1.4.wav","704","even","2463229","2465788","2465288","2464525","2174100","NA","2462229","2466565","716","NA","NA","2462227","2467302","2205134","2462227","1846616","NA","2462229","718","New experiment","NA","0","0","0","yes","1024"
"undefined","undefined","undefined","undefined","black","no","legacy","0","uniform","undefined","undefined","undefined","98","98","197","98","98","NA","98","98","0","0","0","98","98","0","98","0","NA","98","0","Thu 30 May 2019 11:39:47 AM PDT","500","1000","The main experiment item","yes","NA","ABX_v3.osexp","/home/ubuntu/Desktop/panara","yes","no","mono","no","18","no","white","no","yes","768","44","53","/home/ubuntu/Desktop/panara/subject-704.csv","Jazzy James","3.1.3","4.1.3.wav","4.1.1.wav","4.2.1.wav","0","0","return","0","NA","671","7964","671","NA","1845897","o","2","1024","2","48000","-16","experiment","4.2.1.wav","4.1.3.wav","4.1.1.wav","704","even","2468483","2470930","2470430","2469706","2174100","NA","2467483","2471686","716","NA","NA","2467480","2472358","2205134","2467480","1846616","NA","2467483","718","New experiment","NA","0","0","0","yes","1024"
"undefined","undefined","undefined","undefined","black","no","legacy","0","uniform","undefined","undefined","undefined","99","99","199","99","99","NA","99","99","0","0","0","99","99","0","99","0","NA","99","0","Thu 30 May 2019 11:39:47 AM PDT","500","1000","The main experiment item","yes","NA","ABX_v3.osexp","/home/ubuntu/Desktop/panara","yes","no","mono","no","18","no","white","no","yes","768","45","53","/home/ubuntu/Desktop/panara/subject-704.csv","Jazzy James","3.1.3","1.2.4.wav","3.2.4.wav","3.2.2.wav","0","1","return","1","NA","1431","7964","1431","NA","1845897","o","2","1024","2","48000","-16","experiment","3.2.2.wav","1.2.4.wav","3.2.4.wav","704","even","2473538","2476045","2475545","2474800","2174100","NA","2472538","2476829","716","NA","NA","2472535","2478261","2205134","2472535","1846616","NA","2472538","718","New experiment","NA","0","0","0","yes","1024"
"undefined","undefined","undefined","undefined","black","no","legacy","0","uniform","undefined","undefined","undefined","100","100","201","100","100","NA","100","100","0","0","0","100","100","0","100","0","NA","100","0","Thu 30 May 2019 11:39:47 AM PDT","500","1000","The main experiment item","yes","NA","ABX_v3.osexp","/home/ubuntu/Desktop/panara","no","no","mono","no","18","no","white","no","yes","768","46","53","/home/ubuntu/Desktop/panara/subject-704.csv","Jazzy James","3.1.3","3.1.2.wav","3.1.4.wav","3.2.4.wav","0","1","1","1","NA","1003","25800","1003","NA","1845897","o","2","1024","2","48000","-16","experiment","3.1.2.wav","3.2.4.wav","3.1.4.wav","704","even","2505222","2507869","2507369","2506512","2478419","NA","2504222","2508624","716","NA","NA","2478417","2509628","2205134","2478417","1846616","NA","2504222","718","New experiment","NA","0","0","0","yes","1024"
"undefined","undefined","undefined","undefined","black","no","legacy","0","uniform","undefined","undefined","undefined","101","101","203","101","101","NA","101","101","0","0","0","101","101","0","101","0","NA","101","0","Thu 30 May 2019 11:39:47 AM PDT","500","1000","The main experiment item","yes","NA","ABX_v3.osexp","/home/ubuntu/Desktop/panara","yes","no","mono","no","18","no","white","no","yes","768","47","53","/home/ubuntu/Desktop/panara/subject-704.csv","Jazzy James","3.1.3","3.2.5.wav","3.1.5.wav","3.1.3.wav","0","0","1","0","NA","652","25800","652","NA","1845897","o","2","1024","2","48000","-16","experiment","3.1.3.wav","3.2.5.wav","3.1.5.wav","704","even","2510781","2513350","2512850","2512069","2478419","NA","2509781","2514087","716","NA","NA","2509778","2514740","2205134","2509778","1846616","NA","2509781","718","New experiment","NA","0","0","0","yes","1024"
"undefined","undefined","undefined","undefined","black","no","legacy","0","uniform","undefined","undefined","undefined","102","102","205","102","102","NA","102","102","0","0","0","102","102","0","102","0","NA","102","0","Thu 30 May 2019 11:39:47 AM PDT","500","1000","The main experiment item","yes","NA","ABX_v3.osexp","/home/ubuntu/Desktop/panara","yes","no","mono","no","18","no","white","no","yes","768","48","53","/home/ubuntu/Desktop/panara/subject-704.csv","Jazzy James","3.1.3","1.2.4.wav","1.2.2.wav","3.2.2.wav","0","1","1","1","NA","706","25800","706","NA","1845897","o","2","1024","2","48000","-16","experiment","3.2.2.wav","1.2.4.wav","1.2.2.wav","704","even","2515902","2518453","2517953","2517167","2478419","NA","2514902","2519225","716","NA","NA","2514899","2519931","2205134","2514899","1846616","NA","2514902","718","New experiment","NA","0","0","0","yes","1024"
"undefined","undefined","undefined","undefined","black","no","legacy","0","uniform","undefined","undefined","undefined","103","103","207","103","103","NA","103","103","0","0","0","103","103","0","103","0","NA","103","0","Thu 30 May 2019 11:39:47 AM PDT","500","1000","The main experiment item","yes","NA","ABX_v3.osexp","/home/ubuntu/Desktop/panara","yes","no","mono","no","18","no","white","no","yes","768","49","53","/home/ubuntu/Desktop/panara/subject-704.csv","Jazzy James","3.1.3","4.1.5.wav","4.1.3.wav","2.1.3.wav","0","1","1","1","NA","1031","25800","1031","NA","1845897","o","2","1024","2","48000","-16","experiment","2.1.3.wav","4.1.5.wav","4.1.3.wav","704","even","2521118","2523567","2523067","2522357","2478419","NA","2520118","2524314","716","NA","NA","2520115","2525346","2205134","2520115","1846616","NA","2520118","718","New experiment","NA","0","0","0","yes","1024"
"undefined","undefined","undefined","undefined","black","no","legacy","0","uniform","undefined","undefined","undefined","104","104","209","104","104","NA","104","104","0","0","0","104","104","0","104","0","NA","104","0","Thu 30 May 2019 11:39:47 AM PDT","500","1000","The main experiment item","yes","NA","ABX_v3.osexp","/home/ubuntu/Desktop/panara","no","no","mono","no","18","no","white","no","yes","768","50","53","/home/ubuntu/Desktop/panara/subject-704.csv","Jazzy James","3.1.3","3.1.1.wav","3.1.3.wav","1.1.3.wav","0","1","1","1","NA","714","25800","714","NA","1845897","o","2","1024","2","48000","-16","experiment","3.1.1.wav","1.1.3.wav","3.1.3.wav","704","even","2526516","2528984","2528484","2527751","2478419","NA","2525516","2529815","716","NA","NA","2525513","2530530","2205134","2525513","1846616","NA","2525516","718","New experiment","NA","0","0","0","yes","1024"
"undefined","undefined","undefined","undefined","black","no","legacy","0","uniform","undefined","undefined","undefined","105","105","211","105","105","NA","105","105","0","0","0","105","105","0","105","0","NA","105","0","Thu 30 May 2019 11:39:47 AM PDT","500","1000","The main experiment item","yes","NA","ABX_v3.osexp","/home/ubuntu/Desktop/panara","yes","no","mono","no","18","no","white","no","yes","768","51","53","/home/ubuntu/Desktop/panara/subject-704.csv","Jazzy James","3.1.3","2.1.3.wav","1.1.3.wav","1.1.1.wav","0","1","1","1","NA","909","25800","909","NA","1845897","o","2","1024","2","48000","-16","experiment","1.1.1.wav","2.1.3.wav","1.1.3.wav","704","even","2531692","2534281","2533781","2532956","2478419","NA","2530692","2535053","716","NA","NA","2530690","2535962","2205134","2530690","1846616","NA","2530692","718","New experiment","NA","0","0","0","yes","1024"
"undefined","undefined","undefined","undefined","black","no","legacy","0","uniform","undefined","undefined","undefined","106","106","213","106","106","NA","106","106","0","0","0","106","106","0","106","0","NA","106","0","Thu 30 May 2019 11:39:47 AM PDT","500","1000","The main experiment item","yes","NA","ABX_v3.osexp","/home/ubuntu/Desktop/panara","no","no","mono","no","18","no","white","no","yes","768","52","53","/home/ubuntu/Desktop/panara/subject-704.csv","Jazzy James","3.1.3","2.2.1.wav","2.1.1.wav","2.1.3.wav","0","1","1","1","NA","554","25800","554","NA","1845897","o","2","1024","2","48000","-16","experiment","2.2.1.wav","2.1.3.wav","2.1.1.wav","704","even","2537130","2539586","2539086","2538356","2478419","NA","2536130","2540343","716","NA","NA","2536127","2540898","2205134","2536127","1846616","NA","2536130","718","New experiment","NA","0","0","0","yes","1024"
"undefined","undefined","undefined","undefined","black","no","legacy","0","uniform","undefined","undefined","undefined","107","107","215","107","107","NA","107","107","0","0","0","107","107","0","107","0","NA","107","0","Thu 30 May 2019 11:39:47 AM PDT","500","1000","The main experiment item","yes","NA","ABX_v3.osexp","/home/ubuntu/Desktop/panara","no","no","mono","no","18","no","white","no","yes","768","53","53","/home/ubuntu/Desktop/panara/subject-704.csv","Jazzy James","3.1.3","4.2.2.wav","3.2.2.wav","3.2.4.wav","0","0","1","0","NA","1261","25800","1261","NA","1845897","o","2","1024","2","48000","-16","experiment","4.2.2.wav","3.2.4.wav","3.2.2.wav","704","even","2542051","2544556","2544056","2543283","2478419","NA","2541051","2545300","716","NA","NA","2541049","2546562","2205134","2541048","1846616","NA","2541051","718","New experiment","NA","0","0","0","yes","1024"
"undefined","undefined","undefined","undefined","black","no","legacy","0","uniform","undefined","undefined","undefined","108","108","217","108","108","NA","108","108","0","0","0","108","108","0","108","0","NA","108","0","Thu 30 May 2019 11:39:47 AM PDT","500","1000","The main experiment item","yes","NA","ABX_v3.osexp","/home/ubuntu/Desktop/panara","yes","no","mono","no","18","no","white","no","yes","768","54","53","/home/ubuntu/Desktop/panara/subject-704.csv","Jazzy James","3.1.3","3.1.3.wav","3.1.1.wav","3.2.1.wav","0","0","1","0","NA","2439","25800","2439","NA","1845897","o","2","1024","2","48000","-16","experiment","3.2.1.wav","3.1.3.wav","3.1.1.wav","704","even","2547727","2550254","2549754","2548993","2478419","NA","2546727","2551001","716","NA","NA","2546725","2553440","2205134","2546724","1846616","NA","2546727","718","New experiment","NA","0","0","0","yes","1024"
"undefined","undefined","undefined","undefined","black","no","legacy","0","uniform","undefined","undefined","undefined","109","109","219","109","109","NA","109","109","0","0","0","109","109","0","109","0","NA","109","0","Thu 30 May 2019 11:39:47 AM PDT","500","1000","The main experiment item","yes","NA","ABX_v3.osexp","/home/ubuntu/Desktop/panara","yes","no","mono","no","18","no","white","no","yes","768","55","53","/home/ubuntu/Desktop/panara/subject-704.csv","Jazzy James","3.1.3","2.2.5.wav","2.1.5.wav","2.1.3.wav","0","1","1","1","NA","880","25800","880","NA","1845897","o","2","1024","2","48000","-16","experiment","2.1.3.wav","2.2.5.wav","2.1.5.wav","704","even","2554622","2557102","2556602","2555868","2478419","NA","2553622","2557840","716","NA","NA","2553620","2558721","2205134","2553620","1846616","NA","2553622","718","New experiment","NA","0","0","0","yes","1024"
"undefined","undefined","undefined","undefined","black","no","legacy","0","uniform","undefined","undefined","undefined","110","110","221","110","110","NA","110","110","0","0","0","110","110","0","110","0","NA","110","0","Thu 30 May 2019 11:39:47 AM PDT","500","1000","The main experiment item","yes","NA","ABX_v3.osexp","/home/ubuntu/Desktop/panara","no","no","mono","no","18","no","white","no","yes","768","56","53","/home/ubuntu/Desktop/panara/subject-704.csv","Jazzy James","3.1.3","4.2.1.wav","4.2.3.wav","4.1.3.wav","0","0","1","0","NA","491","25800","491","NA","1845897","o","2","1024","2","48000","-16","experiment","4.2.1.wav","4.1.3.wav","4.2.3.wav","704","even","2559884","2562348","2561848","2561117","2478419","NA","2558883","2563109","716","NA","NA","2558881","2563601","2205134","2558881","1846616","NA","2558883","718","New experiment","NA","0","0","0","yes","1024"
"undefined","undefined","undefined","undefined","black","no","legacy","0","uniform","undefined","undefined","undefined","111","111","223","111","111","NA","111","111","0","0","0","111","111","0","111","0","NA","111","0","Thu 30 May 2019 11:39:47 AM PDT","500","1000","The main experiment item","yes","NA","ABX_v3.osexp","/home/ubuntu/Desktop/panara","no","no","mono","no","18","no","white","no","yes","768","57","53","/home/ubuntu/Desktop/panara/subject-704.csv","Jazzy James","3.1.3","1.1.3.wav","1.1.5.wav","2.1.5.wav","0","1","1","1","NA","1415","25800","1415","NA","1845897","o","2","1024","2","48000","-16","experiment","1.1.3.wav","2.1.5.wav","1.1.5.wav","704","even","2564792","2567343","2566843","2566080","2478419","NA","2563792","2568096","716","NA","NA","2563789","2569511","2205134","2563789","1846616","NA","2563792","718","New experiment","NA","0","0","0","yes","1024"
"undefined","undefined","undefined","undefined","black","no","legacy","0","uniform","undefined","undefined","undefined","112","112","225","112","112","NA","112","112","0","0","0","112","112","0","112","0","NA","112","0","Thu 30 May 2019 11:39:47 AM PDT","500","1000","The main experiment item","yes","NA","ABX_v3.osexp","/home/ubuntu/Desktop/panara","no","no","mono","no","18","no","white","no","yes","768","58","53","/home/ubuntu/Desktop/panara/subject-704.csv","Jazzy James","3.1.3","3.2.1.wav","4.2.1.wav","4.2.3.wav","0","1","1","1","NA","961","25800","961","NA","1845897","o","2","1024","2","48000","-16","experiment","3.2.1.wav","4.2.3.wav","4.2.1.wav","704","even","2570645","2573130","2572630","2571905","2478419","NA","2569644","2573878","716","NA","NA","2569642","2574840","2205134","2569642","1846616","NA","2569645","718","New experiment","NA","0","0","0","yes","1024"
