"acc","accuracy","average_response_time","avg_rt","background","bidi","canvas_backend","compensation","coordinates","correct","correct_display_selecting","correct_welcome","count_A","count_B","count_ISI","count_X","count_break","count_determine_break","count_display_listening","count_display_selecting","count_experiment","count_finished","count_getting_started","count_new_inline_script","count_new_logger","count_new_loop","count_new_sequence","count_plain_block","count_setup_breaks","count_wait_nextitem","count_welcome","datetime","delay_ISI","delay_wait_nextitem","description","disable_garbage_collection","empty_column","experiment_file","experiment_path","flip_order","font_bold","font_family","font_italic","font_size","font_underline","foreground","form_clicks","fullscreen","height","live_row","live_row_plain_block","logfile","opensesame_codename","opensesame_version","play1","play2","play3","repeat_cycle","response","response_break","response_display_selecting","response_finished","response_time","response_time_break","response_time_display_selecting","response_time_finished","response_time_welcome","response_welcome","round_decimals","sound_buf_size","sound_channels","sound_freq","sound_sample_size","start","stimA","stimB","stimX","subject_nr","subject_parity","time_A","time_B","time_ISI","time_X","time_break","time_determine_break","time_display_listening","time_display_selecting","time_experiment","time_finished","time_getting_started","time_new_inline_script","time_new_logger","time_new_loop","time_new_sequence","time_plain_block","time_setup_breaks","time_wait_nextitem","time_welcome","title","to_break","total_correct","total_response_time","total_responses","uniform_coordinates","width"
"undefined","undefined","undefined","undefined","black","no","legacy","0","uniform","undefined","undefined","undefined","0","0","1","0","0","NA","0","0","0","0","0","0","0","0","0","0","NA","0","0","Mon 10 Jun 2019 11:36:09 AM PDT","500","1000","The main experiment item","yes","NA","ABX_v3.osexp","/home/ubuntu/Desktop/panara","no","no","mono","no","18","no","white","no","yes","768","0","0","/home/ubuntu/Desktop/panara/subject-105.csv","Jazzy James","3.1.3","3.2.1.wav","3.2.1.wav","3.2.3.wav","0","0","NA","0","NA","4931","NA","4931","NA","9275580","return","2","1024","2","48000","-16","experiment","3.2.1.wav","3.2.3.wav","3.2.1.wav","105","odd","9277475","9279956","9279456","9278721","NA","NA","9276475","9280701","792","NA","NA","9276473","9285632","NA","9276473","9276376","NA","9276475","795","New experiment","NA","0","0","0","yes","1024"
"undefined","undefined","undefined","undefined","black","no","legacy","0","uniform","undefined","undefined","undefined","1","1","3","1","1","NA","1","1","0","0","0","1","1","0","1","0","NA","1","0","Mon 10 Jun 2019 11:36:09 AM PDT","500","1000","The main experiment item","yes","NA","ABX_v3.osexp","/home/ubuntu/Desktop/panara","no","no","mono","no","18","no","white","no","yes","768","1","1","/home/ubuntu/Desktop/panara/subject-105.csv","Jazzy James","3.1.3","3.2.1.wav","3.2.3.wav","3.2.3.wav","0","1","NA","1","NA","4265","NA","4265","NA","9275580","return","2","1024","2","48000","-16","experiment","3.2.1.wav","3.2.3.wav","3.2.3.wav","105","odd","9286887","9289361","9288861","9288116","NA","NA","9285887","9290109","792","NA","NA","9285885","9294375","NA","9285885","9276376","NA","9285887","795","New experiment","NA","0","0","0","yes","1024"
"undefined","undefined","undefined","undefined","black","no","legacy","0","uniform","undefined","undefined","undefined","2","2","5","2","2","NA","2","2","0","0","0","2","2","0","2","0","NA","2","0","Mon 10 Jun 2019 11:36:09 AM PDT","500","1000","The main experiment item","yes","NA","ABX_v3.osexp","/home/ubuntu/Desktop/panara","no","no","mono","no","18","no","white","no","yes","768","2","2","/home/ubuntu/Desktop/panara/subject-105.csv","Jazzy James","3.1.3","1.1.1.wav","1.1.3.wav","1.1.3.wav","0","1","NA","1","NA","2275","NA","2275","NA","9275580","return","2","1024","2","48000","-16","experiment","1.1.1.wav","1.1.3.wav","1.1.3.wav","105","odd","9295601","9298176","9297676","9296878","NA","NA","9294601","9298979","792","NA","NA","9294598","9301254","NA","9294598","9276376","NA","9294601","795","New experiment","NA","0","0","0","yes","1024"
"undefined","undefined","undefined","undefined","black","no","legacy","0","uniform","undefined","undefined","undefined","3","3","7","3","3","NA","3","3","0","0","0","3","3","0","3","0","NA","3","0","Mon 10 Jun 2019 11:36:09 AM PDT","500","1000","The main experiment item","yes","NA","ABX_v3.osexp","/home/ubuntu/Desktop/panara","no","no","mono","no","18","no","white","no","yes","768","3","3","/home/ubuntu/Desktop/panara/subject-105.csv","Jazzy James","3.1.3","4.2.2.wav","4.2.4.wav","4.2.4.wav","0","0","NA","0","NA","1182","NA","1182","NA","9275580","return","2","1024","2","48000","-16","experiment","4.2.2.wav","4.2.4.wav","4.2.4.wav","105","odd","9302482","9304942","9304442","9303697","NA","NA","9301482","9305657","792","NA","NA","9301479","9306839","NA","9301479","9276376","NA","9301482","795","New experiment","NA","0","0","0","yes","1024"
"undefined","undefined","undefined","undefined","black","no","legacy","0","uniform","undefined","undefined","undefined","4","4","9","4","4","NA","4","4","0","0","0","4","4","0","4","0","NA","4","0","Mon 10 Jun 2019 11:36:09 AM PDT","500","1000","The main experiment item","yes","NA","ABX_v3.osexp","/home/ubuntu/Desktop/panara","no","no","mono","no","18","no","white","no","yes","768","4","4","/home/ubuntu/Desktop/panara/subject-105.csv","Jazzy James","3.1.3","1.1.3.wav","1.1.5.wav","1.1.5.wav","0","0","NA","0","NA","655","NA","655","NA","9275580","return","2","1024","2","48000","-16","experiment","1.1.3.wav","1.1.5.wav","1.1.5.wav","105","odd","9308003","9310586","9310086","9309316","NA","NA","9307003","9311374","792","NA","NA","9307000","9312030","NA","9307000","9276376","NA","9307003","795","New experiment","NA","0","0","0","yes","1024"
"undefined","undefined","undefined","undefined","black","no","legacy","0","uniform","undefined","undefined","undefined","5","5","11","5","5","NA","5","5","0","0","0","5","5","0","5","0","NA","5","0","Mon 10 Jun 2019 11:36:09 AM PDT","500","1000","The main experiment item","yes","NA","ABX_v3.osexp","/home/ubuntu/Desktop/panara","yes","no","mono","no","18","no","white","no","yes","768","5","5","/home/ubuntu/Desktop/panara/subject-105.csv","Jazzy James","3.1.3","3.1.4.wav","3.1.2.wav","3.1.2.wav","0","1","NA","1","NA","4781","NA","4781","NA","9275580","return","2","1024","2","48000","-16","experiment","3.1.2.wav","3.1.4.wav","3.1.2.wav","105","odd","9313186","9315755","9315255","9314491","NA","NA","9312186","9316544","792","NA","NA","9312184","9321325","NA","9312184","9276376","NA","9312186","795","New experiment","NA","0","0","0","yes","1024"
"undefined","undefined","undefined","undefined","black","no","legacy","0","uniform","undefined","undefined","undefined","6","6","13","6","6","NA","6","6","0","0","0","6","6","0","6","0","NA","6","0","Mon 10 Jun 2019 11:36:09 AM PDT","500","1000","The main experiment item","yes","NA","ABX_v3.osexp","/home/ubuntu/Desktop/panara","yes","no","mono","no","18","no","white","no","yes","768","6","6","/home/ubuntu/Desktop/panara/subject-105.csv","Jazzy James","3.1.3","2.2.3.wav","2.2.3.wav","2.2.1.wav","0","1","NA","1","NA","582","NA","582","NA","9275580","return","2","1024","2","48000","-16","experiment","2.2.1.wav","2.2.3.wav","2.2.3.wav","105","odd","9322514","9324990","9324489","9323739","NA","NA","9321514","9325726","792","NA","NA","9321512","9326309","NA","9321512","9276376","NA","9321514","795","New experiment","NA","0","0","0","yes","1024"
"undefined","undefined","undefined","undefined","black","no","legacy","0","uniform","undefined","undefined","undefined","7","7","15","7","7","NA","7","7","0","0","0","7","7","0","7","0","NA","7","0","Mon 10 Jun 2019 11:36:09 AM PDT","500","1000","The main experiment item","yes","NA","ABX_v3.osexp","/home/ubuntu/Desktop/panara","no","no","mono","no","18","no","white","no","yes","768","7","7","/home/ubuntu/Desktop/panara/subject-105.csv","Jazzy James","3.1.3","2.2.2.wav","2.2.2.wav","2.2.4.wav","0","1","NA","1","NA","852","NA","852","NA","9275580","return","2","1024","2","48000","-16","experiment","2.2.2.wav","2.2.4.wav","2.2.2.wav","105","odd","9327479","9329961","9329461","9328728","NA","NA","9326479","9330696","792","NA","NA","9326477","9331549","NA","9326476","9276376","NA","9326479","795","New experiment","NA","0","0","0","yes","1024"
"undefined","undefined","undefined","undefined","black","no","legacy","0","uniform","undefined","undefined","undefined","8","8","17","8","8","NA","8","8","0","0","0","8","8","0","8","0","NA","8","0","Mon 10 Jun 2019 11:36:09 AM PDT","500","1000","The main experiment item","yes","NA","ABX_v3.osexp","/home/ubuntu/Desktop/panara","no","no","mono","no","18","no","white","no","yes","768","8","8","/home/ubuntu/Desktop/panara/subject-105.csv","Jazzy James","3.1.3","3.1.1.wav","3.1.3.wav","3.1.3.wav","0","1","NA","1","NA","934","NA","934","NA","9275580","return","2","1024","2","48000","-16","experiment","3.1.1.wav","3.1.3.wav","3.1.3.wav","105","odd","9332744","9335255","9334755","9333979","NA","NA","9331743","9335991","792","NA","NA","9331741","9336925","NA","9331741","9276376","NA","9331744","795","New experiment","NA","0","0","0","yes","1024"
"undefined","undefined","undefined","undefined","black","no","legacy","0","uniform","undefined","undefined","undefined","9","9","19","9","9","NA","9","9","0","0","0","9","9","0","9","0","NA","9","0","Mon 10 Jun 2019 11:36:09 AM PDT","500","1000","The main experiment item","yes","NA","ABX_v3.osexp","/home/ubuntu/Desktop/panara","no","no","mono","no","18","no","white","no","yes","768","9","9","/home/ubuntu/Desktop/panara/subject-105.csv","Jazzy James","3.1.3","1.2.2.wav","1.2.2.wav","1.2.4.wav","0","1","NA","1","NA","734","NA","734","NA","9275580","return","2","1024","2","48000","-16","experiment","1.2.2.wav","1.2.4.wav","1.2.2.wav","105","odd","9338113","9340716","9340216","9339412","NA","NA","9337113","9341454","792","NA","NA","9337111","9342188","NA","9337110","9276376","NA","9337113","795","New experiment","NA","0","0","0","yes","1024"
"undefined","undefined","undefined","undefined","black","no","legacy","0","uniform","undefined","undefined","undefined","10","10","21","10","10","NA","10","10","0","0","0","10","10","0","10","0","NA","10","0","Mon 10 Jun 2019 11:36:09 AM PDT","500","1000","The main experiment item","yes","NA","ABX_v3.osexp","/home/ubuntu/Desktop/panara","no","no","mono","no","18","no","white","no","yes","768","10","10","/home/ubuntu/Desktop/panara/subject-105.csv","Jazzy James","3.1.3","2.2.2.wav","2.2.4.wav","2.2.4.wav","0","0","NA","0","NA","504","NA","504","NA","9275580","return","2","1024","2","48000","-16","experiment","2.2.2.wav","2.2.4.wav","2.2.4.wav","105","odd","9343372","9345810","9345310","9344599","NA","NA","9342372","9346523","792","NA","NA","9342369","9347028","NA","9342369","9276376","NA","9342372","795","New experiment","NA","0","0","0","yes","1024"
"undefined","undefined","undefined","undefined","black","no","legacy","0","uniform","undefined","undefined","undefined","11","11","23","11","11","NA","11","11","0","0","0","11","11","0","11","0","NA","11","0","Mon 10 Jun 2019 11:36:09 AM PDT","500","1000","The main experiment item","yes","NA","ABX_v3.osexp","/home/ubuntu/Desktop/panara","no","no","mono","no","18","no","white","no","yes","768","11","11","/home/ubuntu/Desktop/panara/subject-105.csv","Jazzy James","3.1.3","5.2.1.wav","5.2.1.wav","5.2.3.wav","0","1","NA","1","NA","3444","NA","3444","NA","9275580","return","2","1024","2","48000","-16","experiment","5.2.1.wav","5.2.3.wav","5.2.1.wav","105","odd","9348208","9350639","9350139","9349420","NA","NA","9347208","9351392","792","NA","NA","9347206","9354836","NA","9347206","9276376","NA","9347208","795","New experiment","NA","0","0","0","yes","1024"
"undefined","undefined","undefined","undefined","black","no","legacy","0","uniform","undefined","undefined","undefined","12","12","25","12","12","NA","12","12","0","0","0","12","12","0","12","0","NA","12","0","Mon 10 Jun 2019 11:36:09 AM PDT","500","1000","The main experiment item","yes","NA","ABX_v3.osexp","/home/ubuntu/Desktop/panara","yes","no","mono","no","18","no","white","no","yes","768","12","12","/home/ubuntu/Desktop/panara/subject-105.csv","Jazzy James","3.1.3","1.1.4.wav","1.1.4.wav","1.1.2.wav","0","1","NA","1","NA","657","NA","657","NA","9275580","return","2","1024","2","48000","-16","experiment","1.1.2.wav","1.1.4.wav","1.1.4.wav","105","odd","9356038","9358614","9358114","9357330","NA","NA","9355037","9359386","792","NA","NA","9355035","9360043","NA","9355035","9276376","NA","9355038","795","New experiment","NA","0","0","0","yes","1024"
"undefined","undefined","undefined","undefined","black","no","legacy","0","uniform","undefined","undefined","undefined","13","13","27","13","13","NA","13","13","0","0","0","13","13","0","13","0","NA","13","0","Mon 10 Jun 2019 11:36:09 AM PDT","500","1000","The main experiment item","yes","NA","ABX_v3.osexp","/home/ubuntu/Desktop/panara","yes","no","mono","no","18","no","white","no","yes","768","13","13","/home/ubuntu/Desktop/panara/subject-105.csv","Jazzy James","3.1.3","4.2.5.wav","4.2.5.wav","4.2.3.wav","0","1","NA","1","NA","1070","NA","1070","NA","9275580","return","2","1024","2","48000","-16","experiment","4.2.3.wav","4.2.5.wav","4.2.5.wav","105","odd","9361279","9363772","9363272","9362520","NA","NA","9360279","9364517","792","NA","NA","9360276","9365588","NA","9360276","9276376","NA","9360279","795","New experiment","NA","0","0","0","yes","1024"
"undefined","undefined","undefined","undefined","black","no","legacy","0","uniform","undefined","undefined","undefined","14","14","29","14","14","NA","14","14","0","0","0","14","14","0","14","0","NA","14","0","Mon 10 Jun 2019 11:36:09 AM PDT","500","1000","The main experiment item","yes","NA","ABX_v3.osexp","/home/ubuntu/Desktop/panara","no","no","mono","no","18","no","white","no","yes","768","14","14","/home/ubuntu/Desktop/panara/subject-105.csv","Jazzy James","3.1.3","4.2.1.wav","4.2.1.wav","4.2.3.wav","0","1","NA","1","NA","800","NA","800","NA","9275580","return","2","1024","2","48000","-16","experiment","4.2.1.wav","4.2.3.wav","4.2.1.wav","105","odd","9366776","9369229","9368729","9368012","NA","NA","9365776","9369979","792","NA","NA","9365773","9370779","NA","9365773","9276376","NA","9365776","795","New experiment","NA","0","0","0","yes","1024"
"undefined","undefined","undefined","undefined","black","no","legacy","0","uniform","undefined","undefined","undefined","15","15","31","15","15","NA","15","15","0","0","0","15","15","0","15","0","NA","15","0","Mon 10 Jun 2019 11:36:09 AM PDT","500","1000","The main experiment item","yes","NA","ABX_v3.osexp","/home/ubuntu/Desktop/panara","no","no","mono","no","18","no","white","no","yes","768","15","15","/home/ubuntu/Desktop/panara/subject-105.csv","Jazzy James","3.1.3","3.2.2.wav","3.2.4.wav","3.2.4.wav","0","1","NA","1","NA","2064","NA","2064","NA","9275580","return","2","1024","2","48000","-16","experiment","3.2.2.wav","3.2.4.wav","3.2.4.wav","105","odd","9371980","9374496","9373996","9373262","NA","NA","9370980","9375250","792","NA","NA","9370977","9377314","NA","9370977","9276376","NA","9370980","795","New experiment","NA","0","0","0","yes","1024"
"undefined","undefined","undefined","undefined","black","no","legacy","0","uniform","undefined","undefined","undefined","16","16","33","16","16","NA","16","16","0","0","0","16","16","0","16","0","NA","16","0","Mon 10 Jun 2019 11:36:09 AM PDT","500","1000","The main experiment item","yes","NA","ABX_v3.osexp","/home/ubuntu/Desktop/panara","no","no","mono","no","18","no","white","no","yes","768","16","16","/home/ubuntu/Desktop/panara/subject-105.csv","Jazzy James","3.1.3","5.2.3.wav","5.2.3.wav","5.2.5.wav","0","1","NA","1","NA","1173","NA","1173","NA","9275580","return","2","1024","2","48000","-16","experiment","5.2.3.wav","5.2.5.wav","5.2.3.wav","105","odd","9378510","9380969","9380469","9379745","NA","NA","9377510","9381685","792","NA","NA","9377508","9382859","NA","9377507","9276376","NA","9377510","795","New experiment","NA","0","0","0","yes","1024"
"undefined","undefined","undefined","undefined","black","no","legacy","0","uniform","undefined","undefined","undefined","17","17","35","17","17","NA","17","17","0","0","0","17","17","0","17","0","NA","17","0","Mon 10 Jun 2019 11:36:09 AM PDT","500","1000","The main experiment item","yes","NA","ABX_v3.osexp","/home/ubuntu/Desktop/panara","no","no","mono","no","18","no","white","no","yes","768","17","17","/home/ubuntu/Desktop/panara/subject-105.csv","Jazzy James","3.1.3","4.1.3.wav","4.1.5.wav","4.1.5.wav","0","0","NA","0","NA","515","NA","515","NA","9275580","return","2","1024","2","48000","-16","experiment","4.1.3.wav","4.1.5.wav","4.1.5.wav","105","odd","9384055","9386532","9386032","9385296","NA","NA","9383054","9387271","792","NA","NA","9383052","9387786","NA","9383052","9276376","NA","9383055","795","New experiment","NA","0","0","0","yes","1024"
"undefined","undefined","undefined","undefined","black","no","legacy","0","uniform","undefined","undefined","undefined","18","18","37","18","18","NA","18","18","0","0","0","18","18","0","18","0","NA","18","0","Mon 10 Jun 2019 11:36:09 AM PDT","500","1000","The main experiment item","yes","NA","ABX_v3.osexp","/home/ubuntu/Desktop/panara","no","no","mono","no","18","no","white","no","yes","768","18","18","/home/ubuntu/Desktop/panara/subject-105.csv","Jazzy James","3.1.3","5.2.3.wav","5.2.5.wav","5.2.5.wav","0","0","NA","0","NA","2006","NA","2006","NA","9275580","return","2","1024","2","48000","-16","experiment","5.2.3.wav","5.2.5.wav","5.2.5.wav","105","odd","9388950","9391419","9390919","9390208","NA","NA","9387950","9392163","792","NA","NA","9387947","9394169","NA","9387947","9276376","NA","9387950","795","New experiment","NA","0","0","0","yes","1024"
"undefined","undefined","undefined","undefined","black","no","legacy","0","uniform","undefined","undefined","undefined","19","19","39","19","19","NA","19","19","0","0","0","19","19","0","19","0","NA","19","0","Mon 10 Jun 2019 11:36:09 AM PDT","500","1000","The main experiment item","yes","NA","ABX_v3.osexp","/home/ubuntu/Desktop/panara","no","no","mono","no","18","no","white","no","yes","768","19","19","/home/ubuntu/Desktop/panara/subject-105.csv","Jazzy James","3.1.3","2.1.2.wav","2.1.2.wav","2.1.4.wav","0","1","NA","1","NA","591","NA","591","NA","9275580","return","2","1024","2","48000","-16","experiment","2.1.2.wav","2.1.4.wav","2.1.2.wav","105","odd","9395379","9397859","9397359","9396627","NA","NA","9394379","9398649","792","NA","NA","9394376","9399241","NA","9394376","9276376","NA","9394379","795","New experiment","NA","0","0","0","yes","1024"
"undefined","undefined","undefined","undefined","black","no","legacy","0","uniform","undefined","undefined","undefined","20","20","41","20","20","NA","20","20","0","0","0","20","20","0","20","0","NA","20","0","Mon 10 Jun 2019 11:36:09 AM PDT","500","1000","The main experiment item","yes","NA","ABX_v3.osexp","/home/ubuntu/Desktop/panara","no","no","mono","no","18","no","white","no","yes","768","20","20","/home/ubuntu/Desktop/panara/subject-105.csv","Jazzy James","3.1.3","1.2.3.wav","1.2.3.wav","1.2.5.wav","0","1","NA","1","NA","674","NA","674","NA","9275580","return","2","1024","2","48000","-16","experiment","1.2.3.wav","1.2.5.wav","1.2.3.wav","105","odd","9400436","9403023","9402523","9401738","NA","NA","9399436","9403806","792","NA","NA","9399433","9404480","NA","9399433","9276376","NA","9399436","795","New experiment","NA","0","0","0","yes","1024"
"undefined","undefined","undefined","undefined","black","no","legacy","0","uniform","undefined","undefined","undefined","21","21","43","21","21","NA","21","21","0","0","0","21","21","0","21","0","NA","21","0","Mon 10 Jun 2019 11:36:09 AM PDT","500","1000","The main experiment item","yes","NA","ABX_v3.osexp","/home/ubuntu/Desktop/panara","yes","no","mono","no","18","no","white","no","yes","768","21","21","/home/ubuntu/Desktop/panara/subject-105.csv","Jazzy James","3.1.3","4.1.4.wav","4.1.4.wav","4.1.2.wav","0","1","NA","1","NA","523","NA","523","NA","9275580","return","2","1024","2","48000","-16","experiment","4.1.2.wav","4.1.4.wav","4.1.4.wav","105","odd","9405694","9408148","9407648","9406923","NA","NA","9404694","9408885","792","NA","NA","9404692","9409408","NA","9404691","9276376","NA","9404694","795","New experiment","NA","0","0","0","yes","1024"
"undefined","undefined","undefined","undefined","black","no","legacy","0","uniform","undefined","undefined","undefined","22","22","45","22","22","NA","22","22","0","0","0","22","22","0","22","0","NA","22","0","Mon 10 Jun 2019 11:36:09 AM PDT","500","1000","The main experiment item","yes","NA","ABX_v3.osexp","/home/ubuntu/Desktop/panara","no","no","mono","no","18","no","white","no","yes","768","22","22","/home/ubuntu/Desktop/panara/subject-105.csv","Jazzy James","3.1.3","3.2.3.wav","3.2.3.wav","3.2.5.wav","0","1","NA","1","NA","722","NA","722","NA","9275580","return","2","1024","2","48000","-16","experiment","3.2.3.wav","3.2.5.wav","3.2.3.wav","105","odd","9410641","9413139","9412639","9411893","NA","NA","9409641","9413902","792","NA","NA","9409638","9414625","NA","9409638","9276376","NA","9409641","795","New experiment","NA","0","0","0","yes","1024"
"undefined","undefined","undefined","undefined","black","no","legacy","0","uniform","undefined","undefined","undefined","23","23","47","23","23","NA","23","23","0","0","0","23","23","0","23","0","NA","23","0","Mon 10 Jun 2019 11:36:09 AM PDT","500","1000","The main experiment item","yes","NA","ABX_v3.osexp","/home/ubuntu/Desktop/panara","yes","no","mono","no","18","no","white","no","yes","768","23","23","/home/ubuntu/Desktop/panara/subject-105.csv","Jazzy James","3.1.3","4.1.4.wav","4.1.2.wav","4.1.2.wav","0","0","NA","0","NA","543","NA","543","NA","9275580","return","2","1024","2","48000","-16","experiment","4.1.2.wav","4.1.4.wav","4.1.2.wav","105","odd","9415807","9418238","9417738","9417013","NA","NA","9414806","9418952","792","NA","NA","9414804","9419496","NA","9414804","9276376","NA","9414807","795","New experiment","NA","0","0","0","yes","1024"
"undefined","undefined","undefined","undefined","black","no","legacy","0","uniform","undefined","undefined","undefined","24","24","49","24","24","NA","24","24","0","0","0","24","24","0","24","0","NA","24","0","Mon 10 Jun 2019 11:36:09 AM PDT","500","1000","The main experiment item","yes","NA","ABX_v3.osexp","/home/ubuntu/Desktop/panara","no","no","mono","no","18","no","white","no","yes","768","24","24","/home/ubuntu/Desktop/panara/subject-105.csv","Jazzy James","3.1.3","3.1.3.wav","3.1.5.wav","3.1.5.wav","0","0","NA","0","NA","564","NA","564","NA","9275580","return","2","1024","2","48000","-16","experiment","3.1.3.wav","3.1.5.wav","3.1.5.wav","105","odd","9420711","9423250","9422750","9421964","NA","NA","9419711","9424036","792","NA","NA","9419709","9424600","NA","9419708","9276376","NA","9419711","795","New experiment","NA","0","0","0","yes","1024"
"undefined","undefined","undefined","undefined","black","no","legacy","0","uniform","undefined","undefined","undefined","25","25","51","25","25","NA","25","25","0","0","0","25","25","0","25","0","NA","25","0","Mon 10 Jun 2019 11:36:09 AM PDT","500","1000","The main experiment item","yes","NA","ABX_v3.osexp","/home/ubuntu/Desktop/panara","no","no","mono","no","18","no","white","no","yes","768","25","25","/home/ubuntu/Desktop/panara/subject-105.csv","Jazzy James","3.1.3","3.1.3.wav","3.1.3.wav","3.1.5.wav","0","1","NA","1","NA","635","NA","635","NA","9275580","return","2","1024","2","48000","-16","experiment","3.1.3.wav","3.1.5.wav","3.1.3.wav","105","odd","9425752","9428255","9427755","9426999","NA","NA","9424751","9429045","792","NA","NA","9424749","9429680","NA","9424749","9276376","NA","9424752","795","New experiment","NA","0","0","0","yes","1024"
"undefined","undefined","undefined","undefined","black","no","legacy","0","uniform","undefined","undefined","undefined","26","26","53","26","26","NA","26","26","0","0","0","26","26","0","26","0","NA","26","0","Mon 10 Jun 2019 11:36:09 AM PDT","500","1000","The main experiment item","yes","NA","ABX_v3.osexp","/home/ubuntu/Desktop/panara","no","no","mono","no","18","no","white","no","yes","768","26","26","/home/ubuntu/Desktop/panara/subject-105.csv","Jazzy James","3.1.3","4.1.1.wav","4.1.3.wav","4.1.3.wav","0","1","NA","1","NA","1039","NA","1039","NA","9275580","return","2","1024","2","48000","-16","experiment","4.1.1.wav","4.1.3.wav","4.1.3.wav","105","odd","9430896","9433341","9432841","9432117","NA","NA","9429896","9434071","792","NA","NA","9429894","9435111","NA","9429893","9276376","NA","9429896","795","New experiment","NA","0","0","0","yes","1024"
"undefined","undefined","undefined","undefined","black","no","legacy","0","uniform","undefined","undefined","undefined","27","27","55","27","27","NA","27","27","0","0","0","27","27","0","27","0","NA","27","0","Mon 10 Jun 2019 11:36:09 AM PDT","500","1000","The main experiment item","yes","NA","ABX_v3.osexp","/home/ubuntu/Desktop/panara","yes","no","mono","no","18","no","white","no","yes","768","27","27","/home/ubuntu/Desktop/panara/subject-105.csv","Jazzy James","3.1.3","1.2.4.wav","1.2.4.wav","1.2.2.wav","0","1","NA","1","NA","1852","NA","1852","NA","9275580","return","2","1024","2","48000","-16","experiment","1.2.2.wav","1.2.4.wav","1.2.4.wav","105","odd","9436371","9438890","9438390","9437648","NA","NA","9435371","9439666","792","NA","NA","9435368","9441518","NA","9435368","9276376","NA","9435371","795","New experiment","NA","0","0","0","yes","1024"
"undefined","undefined","undefined","undefined","black","no","legacy","0","uniform","undefined","undefined","undefined","28","28","57","28","28","NA","28","28","0","0","0","28","28","0","28","0","NA","28","0","Mon 10 Jun 2019 11:36:09 AM PDT","500","1000","The main experiment item","yes","NA","ABX_v3.osexp","/home/ubuntu/Desktop/panara","no","no","mono","no","18","no","white","no","yes","768","28","28","/home/ubuntu/Desktop/panara/subject-105.csv","Jazzy James","3.1.3","2.1.2.wav","2.1.4.wav","2.1.4.wav","0","0","NA","0","NA","461","NA","461","NA","9275580","return","2","1024","2","48000","-16","experiment","2.1.2.wav","2.1.4.wav","2.1.4.wav","105","odd","9442670","9445184","9444684","9443933","NA","NA","9441670","9445937","792","NA","NA","9441667","9446398","NA","9441667","9276376","NA","9441670","795","New experiment","NA","0","0","0","yes","1024"
"undefined","undefined","undefined","undefined","black","no","legacy","0","uniform","undefined","undefined","undefined","29","29","59","29","29","NA","29","29","0","0","0","29","29","0","29","0","NA","29","0","Mon 10 Jun 2019 11:36:09 AM PDT","500","1000","The main experiment item","yes","NA","ABX_v3.osexp","/home/ubuntu/Desktop/panara","no","no","mono","no","18","no","white","no","yes","768","29","29","/home/ubuntu/Desktop/panara/subject-105.csv","Jazzy James","3.1.3","2.1.3.wav","2.1.3.wav","2.1.5.wav","0","1","NA","1","NA","592","NA","592","NA","9275580","return","2","1024","2","48000","-16","experiment","2.1.3.wav","2.1.5.wav","2.1.3.wav","105","odd","9447611","9450121","9449621","9448872","NA","NA","9446611","9450869","792","NA","NA","9446609","9451462","NA","9446609","9276376","NA","9446611","795","New experiment","NA","0","0","0","yes","1024"
"undefined","undefined","undefined","undefined","black","no","legacy","0","uniform","undefined","undefined","undefined","30","30","61","30","30","NA","30","30","0","0","0","30","30","0","30","0","NA","30","0","Mon 10 Jun 2019 11:36:09 AM PDT","500","1000","The main experiment item","yes","NA","ABX_v3.osexp","/home/ubuntu/Desktop/panara","yes","no","mono","no","18","no","white","no","yes","768","30","30","/home/ubuntu/Desktop/panara/subject-105.csv","Jazzy James","3.1.3","3.1.3.wav","3.1.1.wav","3.1.1.wav","0","0","NA","0","NA","1861","NA","1861","NA","9275580","return","2","1024","2","48000","-16","experiment","3.1.1.wav","3.1.3.wav","3.1.1.wav","105","odd","9452627","9455115","9454615","9453879","NA","NA","9451627","9455881","792","NA","NA","9451625","9457743","NA","9451625","9276376","NA","9451627","795","New experiment","NA","0","0","0","yes","1024"
"undefined","undefined","undefined","undefined","black","no","legacy","0","uniform","undefined","undefined","undefined","31","31","63","31","31","NA","31","31","0","0","0","31","31","0","31","0","NA","31","0","Mon 10 Jun 2019 11:36:09 AM PDT","500","1000","The main experiment item","yes","NA","ABX_v3.osexp","/home/ubuntu/Desktop/panara","yes","no","mono","no","18","no","white","no","yes","768","31","31","/home/ubuntu/Desktop/panara/subject-105.csv","Jazzy James","3.1.3","1.2.3.wav","1.2.1.wav","1.2.1.wav","0","0","NA","0","NA","738","NA","738","NA","9275580","return","2","1024","2","48000","-16","experiment","1.2.1.wav","1.2.3.wav","1.2.1.wav","105","odd","9458910","9461472","9460972","9460202","NA","NA","9457910","9462260","792","NA","NA","9457907","9462998","NA","9457907","9276376","NA","9457910","795","New experiment","NA","0","0","0","yes","1024"
"undefined","undefined","undefined","undefined","black","no","legacy","0","uniform","undefined","undefined","undefined","32","32","65","32","32","NA","32","32","0","0","0","32","32","0","32","0","NA","32","0","Mon 10 Jun 2019 11:36:09 AM PDT","500","1000","The main experiment item","yes","NA","ABX_v3.osexp","/home/ubuntu/Desktop/panara","yes","no","mono","no","18","no","white","no","yes","768","32","32","/home/ubuntu/Desktop/panara/subject-105.csv","Jazzy James","3.1.3","2.1.3.wav","2.1.3.wav","2.1.1.wav","0","1","NA","1","NA","921","NA","921","NA","9275580","return","2","1024","2","48000","-16","experiment","2.1.1.wav","2.1.3.wav","2.1.3.wav","105","odd","9464222","9466746","9466246","9465492","NA","NA","9463222","9467523","792","NA","NA","9463219","9468445","NA","9463219","9276376","NA","9463222","795","New experiment","NA","0","0","0","yes","1024"
"undefined","undefined","undefined","undefined","black","no","legacy","0","uniform","undefined","undefined","undefined","33","33","67","33","33","NA","33","33","0","0","0","33","33","0","33","0","NA","33","0","Mon 10 Jun 2019 11:36:09 AM PDT","500","1000","The main experiment item","yes","NA","ABX_v3.osexp","/home/ubuntu/Desktop/panara","yes","no","mono","no","18","no","white","no","yes","768","33","33","/home/ubuntu/Desktop/panara/subject-105.csv","Jazzy James","3.1.3","1.1.5.wav","1.1.3.wav","1.1.3.wav","0","0","NA","0","NA","1421","NA","1421","NA","9275580","return","2","1024","2","48000","-16","experiment","1.1.3.wav","1.1.5.wav","1.1.3.wav","105","odd","9469653","9472251","9471751","9470945","NA","NA","9468653","9473047","792","NA","NA","9468651","9474469","NA","9468651","9276376","NA","9468653","795","New experiment","NA","0","0","0","yes","1024"
"undefined","undefined","undefined","undefined","black","no","legacy","0","uniform","undefined","undefined","undefined","34","34","69","34","34","NA","34","34","0","0","0","34","34","0","34","0","NA","34","0","Mon 10 Jun 2019 11:36:09 AM PDT","500","1000","The main experiment item","yes","NA","ABX_v3.osexp","/home/ubuntu/Desktop/panara","yes","no","mono","no","18","no","white","no","yes","768","34","34","/home/ubuntu/Desktop/panara/subject-105.csv","Jazzy James","3.1.3","1.1.3.wav","1.1.1.wav","1.1.1.wav","0","0","NA","0","NA","956","NA","956","NA","9275580","return","2","1024","2","48000","-16","experiment","1.1.1.wav","1.1.3.wav","1.1.1.wav","105","odd","9475648","9478236","9477736","9476965","NA","NA","9474647","9479048","792","NA","NA","9474645","9480004","NA","9474645","9276376","NA","9474648","795","New experiment","NA","0","0","0","yes","1024"
"undefined","undefined","undefined","undefined","black","no","legacy","0","uniform","undefined","undefined","undefined","35","35","71","35","35","NA","35","35","0","0","0","35","35","0","35","0","NA","35","0","Mon 10 Jun 2019 11:36:09 AM PDT","500","1000","The main experiment item","yes","NA","ABX_v3.osexp","/home/ubuntu/Desktop/panara","no","no","mono","no","18","no","white","no","yes","768","35","35","/home/ubuntu/Desktop/panara/subject-105.csv","Jazzy James","3.1.3","3.2.3.wav","3.2.5.wav","3.2.5.wav","0","0","NA","0","NA","1737","NA","1737","NA","9275580","return","2","1024","2","48000","-16","experiment","3.2.3.wav","3.2.5.wav","3.2.5.wav","105","odd","9481160","9483682","9483181","9482418","NA","NA","9480160","9484466","792","NA","NA","9480158","9486204","NA","9480158","9276376","NA","9480160","795","New experiment","NA","0","0","0","yes","1024"
"undefined","undefined","undefined","undefined","black","no","legacy","0","uniform","undefined","undefined","undefined","36","36","73","36","36","NA","36","36","0","0","0","36","36","0","36","0","NA","36","0","Mon 10 Jun 2019 11:36:09 AM PDT","500","1000","The main experiment item","yes","NA","ABX_v3.osexp","/home/ubuntu/Desktop/panara","no","no","mono","no","18","no","white","no","yes","768","36","36","/home/ubuntu/Desktop/panara/subject-105.csv","Jazzy James","3.1.3","5.2.2.wav","5.2.2.wav","5.2.4.wav","0","0","NA","0","NA","1550","NA","1550","NA","9275580","return","2","1024","2","48000","-16","experiment","5.2.2.wav","5.2.4.wav","5.2.2.wav","105","odd","9487395","9489841","9489341","9488629","NA","NA","9486394","9490581","792","NA","NA","9486392","9492132","NA","9486391","9276376","NA","9486395","795","New experiment","NA","0","0","0","yes","1024"
"undefined","undefined","undefined","undefined","black","no","legacy","0","uniform","undefined","undefined","undefined","37","37","75","37","37","NA","37","37","0","0","0","37","37","0","37","0","NA","37","0","Mon 10 Jun 2019 11:36:09 AM PDT","500","1000","The main experiment item","yes","NA","ABX_v3.osexp","/home/ubuntu/Desktop/panara","no","no","mono","no","18","no","white","no","yes","768","37","37","/home/ubuntu/Desktop/panara/subject-105.csv","Jazzy James","3.1.3","3.1.2.wav","3.1.4.wav","3.1.4.wav","0","0","NA","0","NA","3232","NA","3232","NA","9275580","return","2","1024","2","48000","-16","experiment","3.1.2.wav","3.1.4.wav","3.1.4.wav","105","odd","9493339","9495881","9495380","9494604","NA","NA","9492338","9496668","792","NA","NA","9492336","9499900","NA","9492336","9276376","NA","9492339","795","New experiment","NA","0","0","0","yes","1024"
"undefined","undefined","undefined","undefined","black","no","legacy","0","uniform","undefined","undefined","undefined","38","38","77","38","38","NA","38","38","0","0","0","38","38","0","38","0","NA","38","0","Mon 10 Jun 2019 11:36:09 AM PDT","500","1000","The main experiment item","yes","NA","ABX_v3.osexp","/home/ubuntu/Desktop/panara","yes","no","mono","no","18","no","white","no","yes","768","38","38","/home/ubuntu/Desktop/panara/subject-105.csv","Jazzy James","3.1.3","4.2.5.wav","4.2.3.wav","4.2.3.wav","0","0","NA","0","NA","915","NA","915","NA","9275580","return","2","1024","2","48000","-16","experiment","4.2.3.wav","4.2.5.wav","4.2.3.wav","105","odd","9501080","9503560","9503060","9502325","NA","NA","9500080","9504327","792","NA","NA","9500077","9505243","NA","9500077","9276376","NA","9500080","795","New experiment","NA","0","0","0","yes","1024"
"undefined","undefined","undefined","undefined","black","no","legacy","0","uniform","undefined","undefined","undefined","39","39","79","39","39","NA","39","39","0","0","0","39","39","0","39","0","NA","39","0","Mon 10 Jun 2019 11:36:09 AM PDT","500","1000","The main experiment item","yes","NA","ABX_v3.osexp","/home/ubuntu/Desktop/panara","yes","no","mono","no","18","no","white","no","yes","768","39","39","/home/ubuntu/Desktop/panara/subject-105.csv","Jazzy James","3.1.3","5.2.3.wav","5.2.3.wav","5.2.1.wav","0","1","NA","1","NA","1417","NA","1417","NA","9275580","return","2","1024","2","48000","-16","experiment","5.2.1.wav","5.2.3.wav","5.2.3.wav","105","odd","9506461","9508934","9508434","9507703","NA","NA","9505460","9509665","792","NA","NA","9505458","9511083","NA","9505458","9276376","NA","9505461","795","New experiment","NA","0","0","0","yes","1024"
"undefined","undefined","undefined","undefined","black","no","legacy","0","uniform","undefined","undefined","undefined","40","40","81","40","40","NA","40","40","0","0","0","40","40","0","40","0","NA","40","0","Mon 10 Jun 2019 11:36:09 AM PDT","500","1000","The main experiment item","yes","NA","ABX_v3.osexp","/home/ubuntu/Desktop/panara","yes","no","mono","no","18","no","white","no","yes","768","40","40","/home/ubuntu/Desktop/panara/subject-105.csv","Jazzy James","3.1.3","2.1.3.wav","2.1.1.wav","2.1.1.wav","0","0","NA","0","NA","769","NA","769","NA","9275580","return","2","1024","2","48000","-16","experiment","2.1.1.wav","2.1.3.wav","2.1.1.wav","105","odd","9512259","9514768","9514268","9513524","NA","NA","9511259","9515521","792","NA","NA","9511256","9516290","NA","9511256","9276376","NA","9511259","795","New experiment","NA","0","0","0","yes","1024"
"undefined","undefined","undefined","undefined","black","no","legacy","0","uniform","undefined","undefined","undefined","41","41","83","41","41","NA","41","41","0","0","0","41","41","0","41","0","NA","41","0","Mon 10 Jun 2019 11:36:09 AM PDT","500","1000","The main experiment item","yes","NA","ABX_v3.osexp","/home/ubuntu/Desktop/panara","yes","no","mono","no","18","no","white","no","yes","768","41","41","/home/ubuntu/Desktop/panara/subject-105.csv","Jazzy James","3.1.3","5.2.4.wav","5.2.4.wav","5.2.2.wav","0","0","NA","0","NA","1244","NA","1244","NA","9275580","return","2","1024","2","48000","-16","experiment","5.2.2.wav","5.2.4.wav","5.2.4.wav","105","odd","9517482","9519992","9519492","9518727","NA","NA","9516482","9520702","792","NA","NA","9516478","9521947","NA","9516478","9276376","NA","9516482","795","New experiment","NA","0","0","0","yes","1024"
"undefined","undefined","undefined","undefined","black","no","legacy","0","uniform","undefined","undefined","undefined","42","42","85","42","42","NA","42","42","0","0","0","42","42","0","42","0","NA","42","0","Mon 10 Jun 2019 11:36:09 AM PDT","500","1000","The main experiment item","yes","NA","ABX_v3.osexp","/home/ubuntu/Desktop/panara","no","no","mono","no","18","no","white","no","yes","768","42","42","/home/ubuntu/Desktop/panara/subject-105.csv","Jazzy James","3.1.3","2.2.3.wav","2.2.3.wav","2.2.5.wav","0","1","NA","1","NA","1082","NA","1082","NA","9275580","return","2","1024","2","48000","-16","experiment","2.2.3.wav","2.2.5.wav","2.2.3.wav","105","odd","9523138","9525643","9525143","9524399","NA","NA","9522138","9526359","792","NA","NA","9522135","9527442","NA","9522135","9276376","NA","9522138","795","New experiment","NA","0","0","0","yes","1024"
"undefined","undefined","undefined","undefined","black","no","legacy","0","uniform","undefined","undefined","undefined","43","43","87","43","43","NA","43","43","0","0","0","43","43","0","43","0","NA","43","0","Mon 10 Jun 2019 11:36:09 AM PDT","500","1000","The main experiment item","yes","NA","ABX_v3.osexp","/home/ubuntu/Desktop/panara","no","no","mono","no","18","no","white","no","yes","768","43","43","/home/ubuntu/Desktop/panara/subject-105.csv","Jazzy James","3.1.3","1.2.1.wav","1.2.3.wav","1.2.3.wav","0","0","NA","0","NA","1228","NA","1228","NA","9275580","return","2","1024","2","48000","-16","experiment","1.2.1.wav","1.2.3.wav","1.2.3.wav","105","odd","9528612","9531192","9530692","9529902","NA","NA","9527611","9531965","792","NA","NA","9527609","9533193","NA","9527608","9276376","NA","9527612","795","New experiment","NA","0","0","0","yes","1024"
"undefined","undefined","undefined","undefined","black","no","legacy","0","uniform","undefined","undefined","undefined","44","44","89","44","44","NA","44","44","0","0","0","44","44","0","44","0","NA","44","0","Mon 10 Jun 2019 11:36:09 AM PDT","500","1000","The main experiment item","yes","NA","ABX_v3.osexp","/home/ubuntu/Desktop/panara","no","no","mono","no","18","no","white","no","yes","768","44","44","/home/ubuntu/Desktop/panara/subject-105.csv","Jazzy James","3.1.3","4.1.3.wav","4.1.3.wav","4.1.5.wav","0","1","NA","1","NA","1158","NA","1158","NA","9275580","return","2","1024","2","48000","-16","experiment","4.1.3.wav","4.1.5.wav","4.1.3.wav","105","odd","9534360","9536822","9536322","9535598","NA","NA","9533360","9537556","792","NA","NA","9533358","9538714","NA","9533357","9276376","NA","9533360","795","New experiment","NA","0","0","0","yes","1024"
"undefined","undefined","undefined","undefined","black","no","legacy","0","uniform","undefined","undefined","undefined","45","45","91","45","45","NA","45","45","0","0","0","45","45","0","45","0","NA","45","0","Mon 10 Jun 2019 11:36:09 AM PDT","500","1000","The main experiment item","yes","NA","ABX_v3.osexp","/home/ubuntu/Desktop/panara","yes","no","mono","no","18","no","white","no","yes","768","45","45","/home/ubuntu/Desktop/panara/subject-105.csv","Jazzy James","3.1.3","4.2.3.wav","4.2.3.wav","4.2.1.wav","0","1","NA","1","NA","1033","NA","1033","NA","9275580","return","2","1024","2","48000","-16","experiment","4.2.1.wav","4.2.3.wav","4.2.3.wav","105","odd","9539878","9542365","9541865","9541133","NA","NA","9538877","9543079","792","NA","NA","9538875","9544113","NA","9538875","9276376","NA","9538878","795","New experiment","NA","0","0","0","yes","1024"
"undefined","undefined","undefined","undefined","black","no","legacy","0","uniform","undefined","undefined","undefined","46","46","93","46","46","NA","46","46","0","0","0","46","46","0","46","0","NA","46","0","Mon 10 Jun 2019 11:36:09 AM PDT","500","1000","The main experiment item","yes","NA","ABX_v3.osexp","/home/ubuntu/Desktop/panara","no","no","mono","no","18","no","white","no","yes","768","46","46","/home/ubuntu/Desktop/panara/subject-105.csv","Jazzy James","3.1.3","1.2.3.wav","1.2.5.wav","1.2.5.wav","0","0","NA","0","NA","823","NA","823","NA","9275580","return","2","1024","2","48000","-16","experiment","1.2.3.wav","1.2.5.wav","1.2.5.wav","105","odd","9545293","9547894","9547394","9546592","NA","NA","9544292","9548673","792","NA","NA","9544290","9549496","NA","9544290","9276376","NA","9544293","795","New experiment","NA","0","0","0","yes","1024"
"undefined","undefined","undefined","undefined","black","no","legacy","0","uniform","undefined","undefined","undefined","47","47","95","47","47","NA","47","47","0","0","0","47","47","0","47","0","NA","47","0","Mon 10 Jun 2019 11:36:09 AM PDT","500","1000","The main experiment item","yes","NA","ABX_v3.osexp","/home/ubuntu/Desktop/panara","yes","no","mono","no","18","no","white","no","yes","768","47","47","/home/ubuntu/Desktop/panara/subject-105.csv","Jazzy James","3.1.3","2.2.3.wav","2.2.1.wav","2.2.1.wav","0","0","NA","0","NA","809","NA","809","NA","9275580","return","2","1024","2","48000","-16","experiment","2.2.1.wav","2.2.3.wav","2.2.1.wav","105","odd","9550710","9553142","9552642","9551929","NA","NA","9549710","9553880","792","NA","NA","9549707","9554689","NA","9549707","9276376","NA","9549710","795","New experiment","NA","0","0","0","yes","1024"
"undefined","undefined","undefined","undefined","black","no","legacy","0","uniform","undefined","undefined","undefined","48","48","97","48","48","NA","48","48","0","0","0","48","48","0","48","0","NA","48","0","Mon 10 Jun 2019 11:36:09 AM PDT","500","1000","The main experiment item","yes","NA","ABX_v3.osexp","/home/ubuntu/Desktop/panara","yes","no","mono","no","18","no","white","no","yes","768","48","48","/home/ubuntu/Desktop/panara/subject-105.csv","Jazzy James","3.1.3","4.1.3.wav","4.1.1.wav","4.1.1.wav","0","0","NA","0","NA","567","NA","567","NA","9275580","return","2","1024","2","48000","-16","experiment","4.1.1.wav","4.1.3.wav","4.1.1.wav","105","odd","9555847","9558322","9557822","9557102","NA","NA","9554847","9559065","792","NA","NA","9554844","9559633","NA","9554844","9276376","NA","9554847","795","New experiment","NA","0","0","0","yes","1024"
"undefined","undefined","undefined","undefined","black","no","legacy","0","uniform","undefined","undefined","undefined","49","49","99","49","49","NA","49","49","0","0","0","49","49","0","49","0","NA","49","0","Mon 10 Jun 2019 11:36:09 AM PDT","500","1000","The main experiment item","yes","NA","ABX_v3.osexp","/home/ubuntu/Desktop/panara","yes","no","mono","no","18","no","white","no","yes","768","49","49","/home/ubuntu/Desktop/panara/subject-105.csv","Jazzy James","3.1.3","1.1.4.wav","1.1.2.wav","1.1.2.wav","0","1","NA","1","NA","2503","NA","2503","NA","9275580","return","2","1024","2","48000","-16","experiment","1.1.2.wav","1.1.4.wav","1.1.2.wav","105","odd","9560813","9563382","9562882","9562081","NA","NA","9559812","9564185","792","NA","NA","9559810","9566689","NA","9559810","9276376","NA","9559813","795","New experiment","NA","0","0","0","yes","1024"
"undefined","undefined","undefined","undefined","black","no","legacy","0","uniform","undefined","undefined","undefined","50","50","101","50","50","NA","50","50","0","0","0","50","50","0","50","0","NA","50","0","Mon 10 Jun 2019 11:36:09 AM PDT","500","1000","The main experiment item","yes","NA","ABX_v3.osexp","/home/ubuntu/Desktop/panara","no","no","mono","no","18","no","white","no","yes","768","50","50","/home/ubuntu/Desktop/panara/subject-105.csv","Jazzy James","3.1.3","3.2.2.wav","3.2.2.wav","3.2.4.wav","0","1","return","1","NA","1371","17703","1371","NA","9275580","return","2","1024","2","48000","-16","experiment","3.2.2.wav","3.2.4.wav","3.2.2.wav","105","odd","9585561","9588128","9587628","9586849","9566855","NA","9584561","9588875","792","NA","NA","9566853","9590246","NA","9566853","9276376","NA","9584561","795","New experiment","NA","0","0","0","yes","1024"
"undefined","undefined","undefined","undefined","black","no","legacy","0","uniform","undefined","undefined","undefined","51","51","103","51","51","NA","51","51","0","0","0","51","51","0","51","0","NA","51","0","Mon 10 Jun 2019 11:36:09 AM PDT","500","1000","The main experiment item","yes","NA","ABX_v3.osexp","/home/ubuntu/Desktop/panara","yes","no","mono","no","18","no","white","no","yes","768","51","51","/home/ubuntu/Desktop/panara/subject-105.csv","Jazzy James","3.1.3","2.1.5.wav","2.1.5.wav","2.1.3.wav","0","1","return","1","NA","1052","17703","1052","NA","9275580","return","2","1024","2","48000","-16","experiment","2.1.3.wav","2.1.5.wav","2.1.5.wav","105","odd","9591444","9593944","9593444","9592685","9566855","NA","9590444","9594698","792","NA","NA","9590442","9595751","NA","9590441","9276376","NA","9590444","795","New experiment","NA","0","0","0","yes","1024"
"undefined","undefined","undefined","undefined","black","no","legacy","0","uniform","undefined","undefined","undefined","52","52","105","52","52","NA","52","52","0","0","0","52","52","0","52","0","NA","52","0","Mon 10 Jun 2019 11:36:09 AM PDT","500","1000","The main experiment item","yes","NA","ABX_v3.osexp","/home/ubuntu/Desktop/panara","yes","no","mono","no","18","no","white","no","yes","768","52","52","/home/ubuntu/Desktop/panara/subject-105.csv","Jazzy James","3.1.3","2.2.5.wav","2.2.5.wav","2.2.3.wav","0","1","return","1","NA","843","17703","843","NA","9275580","return","2","1024","2","48000","-16","experiment","2.2.3.wav","2.2.5.wav","2.2.5.wav","105","odd","9596908","9599378","9598878","9598155","9566855","NA","9595908","9600131","792","NA","NA","9595905","9600975","NA","9595905","9276376","NA","9595908","795","New experiment","NA","0","0","0","yes","1024"
"undefined","undefined","undefined","undefined","black","no","legacy","0","uniform","undefined","undefined","undefined","53","53","107","53","53","NA","53","53","0","0","0","53","53","0","53","0","NA","53","0","Mon 10 Jun 2019 11:36:09 AM PDT","500","1000","The main experiment item","yes","NA","ABX_v3.osexp","/home/ubuntu/Desktop/panara","no","no","mono","no","18","no","white","no","yes","768","53","53","/home/ubuntu/Desktop/panara/subject-105.csv","Jazzy James","3.1.3","4.2.2.wav","4.2.2.wav","4.2.4.wav","0","1","return","1","NA","1036","17703","1036","NA","9275580","return","2","1024","2","48000","-16","experiment","4.2.2.wav","4.2.4.wav","4.2.2.wav","105","odd","9602184","9604660","9604160","9603437","9566855","NA","9601184","9605385","792","NA","NA","9601181","9606421","NA","9601181","9276376","NA","9601184","795","New experiment","NA","0","0","0","yes","1024"
"undefined","undefined","undefined","undefined","black","no","legacy","0","uniform","undefined","undefined","undefined","54","54","109","54","54","NA","54","54","0","0","0","54","54","0","54","0","NA","54","0","Mon 10 Jun 2019 11:36:09 AM PDT","500","1000","The main experiment item","yes","NA","ABX_v3.osexp","/home/ubuntu/Desktop/panara","yes","no","mono","no","18","no","white","no","yes","768","0","53","/home/ubuntu/Desktop/panara/subject-105.csv","Jazzy James","3.1.3","3.2.5.wav","4.2.5.wav","4.2.3.wav","0","0","return","0","NA","1088","17703","1088","NA","9275580","return","2","1024","2","48000","-16","experiment","4.2.3.wav","3.2.5.wav","4.2.5.wav","105","odd","9607666","9610207","9609707","9608954","9566855","NA","9606666","9610948","792","NA","NA","9606663","9612037","9606539","9606663","9276376","NA","9606666","795","New experiment","NA","0","0","0","yes","1024"
"undefined","undefined","undefined","undefined","black","no","legacy","0","uniform","undefined","undefined","undefined","55","55","111","55","55","NA","55","55","0","0","0","55","55","0","55","0","NA","55","0","Mon 10 Jun 2019 11:36:09 AM PDT","500","1000","The main experiment item","yes","NA","ABX_v3.osexp","/home/ubuntu/Desktop/panara","no","no","mono","no","18","no","white","no","yes","768","1","53","/home/ubuntu/Desktop/panara/subject-105.csv","Jazzy James","3.1.3","1.1.1.wav","2.1.1.wav","2.1.3.wav","0","0","return","0","NA","2536","17703","2536","NA","9275580","return","2","1024","2","48000","-16","experiment","1.1.1.wav","2.1.3.wav","2.1.1.wav","105","odd","9613257","9615823","9615323","9614573","9566855","NA","9612257","9616580","792","NA","NA","9612254","9619117","9606539","9612254","9276376","NA","9612257","795","New experiment","NA","0","0","0","yes","1024"
"undefined","undefined","undefined","undefined","black","no","legacy","0","uniform","undefined","undefined","undefined","56","56","113","56","56","NA","56","56","0","0","0","56","56","0","56","0","NA","56","0","Mon 10 Jun 2019 11:36:09 AM PDT","500","1000","The main experiment item","yes","NA","ABX_v3.osexp","/home/ubuntu/Desktop/panara","yes","no","mono","no","18","no","white","no","yes","768","2","53","/home/ubuntu/Desktop/panara/subject-105.csv","Jazzy James","3.1.3","1.1.5.wav","1.2.5.wav","1.2.3.wav","0","1","return","1","NA","1261","17703","1261","NA","9275580","return","2","1024","2","48000","-16","experiment","1.2.3.wav","1.1.5.wav","1.2.5.wav","105","odd","9620262","9622792","9622292","9621534","9566855","NA","9619262","9623568","792","NA","NA","9619260","9624829","9606539","9619260","9276376","NA","9619262","795","New experiment","NA","0","0","0","yes","1024"
"undefined","undefined","undefined","undefined","black","no","legacy","0","uniform","undefined","undefined","undefined","57","57","115","57","57","NA","57","57","0","0","0","57","57","0","57","0","NA","57","0","Mon 10 Jun 2019 11:36:09 AM PDT","500","1000","The main experiment item","yes","NA","ABX_v3.osexp","/home/ubuntu/Desktop/panara","yes","no","mono","no","18","no","white","no","yes","768","3","53","/home/ubuntu/Desktop/panara/subject-105.csv","Jazzy James","3.1.3","3.1.3.wav","4.1.3.wav","4.1.1.wav","0","0","return","0","NA","926","17703","926","NA","9275580","return","2","1024","2","48000","-16","experiment","4.1.1.wav","3.1.3.wav","4.1.3.wav","105","odd","9625997","9628502","9628001","9627265","9566855","NA","9624996","9629229","792","NA","NA","9624994","9630156","9606539","9624994","9276376","NA","9624997","795","New experiment","NA","0","0","0","yes","1024"
"undefined","undefined","undefined","undefined","black","no","legacy","0","uniform","undefined","undefined","undefined","58","58","117","58","58","NA","58","58","0","0","0","58","58","0","58","0","NA","58","0","Mon 10 Jun 2019 11:36:09 AM PDT","500","1000","The main experiment item","yes","NA","ABX_v3.osexp","/home/ubuntu/Desktop/panara","yes","no","mono","no","18","no","white","no","yes","768","4","53","/home/ubuntu/Desktop/panara/subject-105.csv","Jazzy James","3.1.3","3.1.3.wav","1.1.3.wav","1.1.1.wav","0","0","return","0","NA","1204","17703","1204","NA","9275580","return","2","1024","2","48000","-16","experiment","1.1.1.wav","3.1.3.wav","1.1.3.wav","105","odd","9631337","9633899","9633399","9632591","9566855","NA","9630337","9634712","792","NA","NA","9630334","9635917","9606539","9630334","9276376","NA","9630337","795","New experiment","NA","0","0","0","yes","1024"
"undefined","undefined","undefined","undefined","black","no","legacy","0","uniform","undefined","undefined","undefined","59","59","119","59","59","NA","59","59","0","0","0","59","59","0","59","0","NA","59","0","Mon 10 Jun 2019 11:36:09 AM PDT","500","1000","The main experiment item","yes","NA","ABX_v3.osexp","/home/ubuntu/Desktop/panara","no","no","mono","no","18","no","white","no","yes","768","5","53","/home/ubuntu/Desktop/panara/subject-105.csv","Jazzy James","3.1.3","1.1.1.wav","1.2.1.wav","1.2.3.wav","0","1","return","1","NA","1397","17703","1397","NA","9275580","return","2","1024","2","48000","-16","experiment","1.1.1.wav","1.2.3.wav","1.2.1.wav","105","odd","9637046","9639624","9639124","9638359","9566855","NA","9636045","9640391","792","NA","NA","9636043","9641788","9606539","9636043","9276376","NA","9636046","795","New experiment","NA","0","0","0","yes","1024"
"undefined","undefined","undefined","undefined","black","no","legacy","0","uniform","undefined","undefined","undefined","60","60","121","60","60","NA","60","60","0","0","0","60","60","0","60","0","NA","60","0","Mon 10 Jun 2019 11:36:09 AM PDT","500","1000","The main experiment item","yes","NA","ABX_v3.osexp","/home/ubuntu/Desktop/panara","no","no","mono","no","18","no","white","no","yes","768","6","53","/home/ubuntu/Desktop/panara/subject-105.csv","Jazzy James","3.1.3","1.2.1.wav","1.2.3.wav","1.1.3.wav","0","1","return","1","NA","1611","17703","1611","NA","9275580","return","2","1024","2","48000","-16","experiment","1.2.1.wav","1.1.3.wav","1.2.3.wav","105","odd","9642972","9645517","9645017","9644246","9566855","NA","9641971","9646328","792","NA","NA","9641969","9647940","9606539","9641968","9276376","NA","9641972","795","New experiment","NA","0","0","0","yes","1024"
"undefined","undefined","undefined","undefined","black","no","legacy","0","uniform","undefined","undefined","undefined","61","61","123","61","61","NA","61","61","0","0","0","61","61","0","61","0","NA","61","0","Mon 10 Jun 2019 11:36:09 AM PDT","500","1000","The main experiment item","yes","NA","ABX_v3.osexp","/home/ubuntu/Desktop/panara","no","no","mono","no","18","no","white","no","yes","768","7","53","/home/ubuntu/Desktop/panara/subject-105.csv","Jazzy James","3.1.3","4.2.2.wav","2.2.2.wav","2.2.4.wav","0","0","return","0","NA","727","17703","727","NA","9275580","return","2","1024","2","48000","-16","experiment","4.2.2.wav","2.2.4.wav","2.2.2.wav","105","odd","9649135","9651590","9651090","9650375","9566855","NA","9648135","9652315","792","NA","NA","9648133","9653043","9606539","9648132","9276376","NA","9648135","795","New experiment","NA","0","0","0","yes","1024"
"undefined","undefined","undefined","undefined","black","no","legacy","0","uniform","undefined","undefined","undefined","62","62","125","62","62","NA","62","62","0","0","0","62","62","0","62","0","NA","62","0","Mon 10 Jun 2019 11:36:09 AM PDT","500","1000","The main experiment item","yes","NA","ABX_v3.osexp","/home/ubuntu/Desktop/panara","yes","no","mono","no","18","no","white","no","yes","768","8","53","/home/ubuntu/Desktop/panara/subject-105.csv","Jazzy James","3.1.3","4.2.3.wav","3.2.3.wav","3.2.1.wav","0","0","return","0","NA","791","17703","791","NA","9275580","return","2","1024","2","48000","-16","experiment","3.2.1.wav","4.2.3.wav","3.2.3.wav","105","odd","9654226","9656745","9656245","9655496","9566855","NA","9653225","9657499","792","NA","NA","9653222","9658290","9606539","9653222","9276376","NA","9653225","795","New experiment","NA","0","0","0","yes","1024"
"undefined","undefined","undefined","undefined","black","no","legacy","0","uniform","undefined","undefined","undefined","63","63","127","63","63","NA","63","63","0","0","0","63","63","0","63","0","NA","63","0","Mon 10 Jun 2019 11:36:09 AM PDT","500","1000","The main experiment item","yes","NA","ABX_v3.osexp","/home/ubuntu/Desktop/panara","no","no","mono","no","18","no","white","no","yes","768","9","53","/home/ubuntu/Desktop/panara/subject-105.csv","Jazzy James","3.1.3","3.2.3.wav","3.2.5.wav","3.1.5.wav","0","0","return","0","NA","1108","17703","1108","NA","9275580","return","2","1024","2","48000","-16","experiment","3.2.3.wav","3.1.5.wav","3.2.5.wav","105","odd","9659465","9662008","9661508","9660727","9566855","NA","9658465","9662791","792","NA","NA","9658462","9663899","9606539","9658462","9276376","NA","9658465","795","New experiment","NA","0","0","0","yes","1024"
"undefined","undefined","undefined","undefined","black","no","legacy","0","uniform","undefined","undefined","undefined","64","64","129","64","64","NA","64","64","0","0","0","64","64","0","64","0","NA","64","0","Mon 10 Jun 2019 11:36:09 AM PDT","500","1000","The main experiment item","yes","NA","ABX_v3.osexp","/home/ubuntu/Desktop/panara","no","no","mono","no","18","no","white","no","yes","768","10","53","/home/ubuntu/Desktop/panara/subject-105.csv","Jazzy James","3.1.3","2.2.1.wav","2.2.3.wav","2.1.3.wav","0","1","return","1","NA","1521","17703","1521","NA","9275580","return","2","1024","2","48000","-16","experiment","2.2.1.wav","2.1.3.wav","2.2.3.wav","105","odd","9665053","9667511","9667011","9666274","9566855","NA","9664053","9668265","792","NA","NA","9664050","9669787","9606539","9664050","9276376","NA","9664053","795","New experiment","NA","0","0","0","yes","1024"
"undefined","undefined","undefined","undefined","black","no","legacy","0","uniform","undefined","undefined","undefined","65","65","131","65","65","NA","65","65","0","0","0","65","65","0","65","0","NA","65","0","Mon 10 Jun 2019 11:36:09 AM PDT","500","1000","The main experiment item","yes","NA","ABX_v3.osexp","/home/ubuntu/Desktop/panara","no","no","mono","no","18","no","white","no","yes","768","11","53","/home/ubuntu/Desktop/panara/subject-105.csv","Jazzy James","3.1.3","1.1.2.wav","1.1.4.wav","2.1.4.wav","0","1","return","1","NA","906","17703","906","NA","9275580","return","2","1024","2","48000","-16","experiment","1.1.2.wav","2.1.4.wav","1.1.4.wav","105","odd","9670986","9673541","9673041","9672263","9566855","NA","9669985","9674295","792","NA","NA","9669983","9675201","9606539","9669983","9276376","NA","9669986","795","New experiment","NA","0","0","0","yes","1024"
"undefined","undefined","undefined","undefined","black","no","legacy","0","uniform","undefined","undefined","undefined","66","66","133","66","66","NA","66","66","0","0","0","66","66","0","66","0","NA","66","0","Mon 10 Jun 2019 11:36:09 AM PDT","500","1000","The main experiment item","yes","NA","ABX_v3.osexp","/home/ubuntu/Desktop/panara","no","no","mono","no","18","no","white","no","yes","768","12","53","/home/ubuntu/Desktop/panara/subject-105.csv","Jazzy James","3.1.3","1.1.1.wav","3.1.1.wav","3.1.3.wav","0","0","return","0","NA","694","17703","694","NA","9275580","return","2","1024","2","48000","-16","experiment","1.1.1.wav","3.1.3.wav","3.1.1.wav","105","odd","9676352","9678889","9678389","9677637","9566855","NA","9675351","9679643","792","NA","NA","9675349","9680337","9606539","9675349","9276376","NA","9675352","795","New experiment","NA","0","0","0","yes","1024"
"undefined","undefined","undefined","undefined","black","no","legacy","0","uniform","undefined","undefined","undefined","67","67","135","67","67","NA","67","67","0","0","0","67","67","0","67","0","NA","67","0","Mon 10 Jun 2019 11:36:09 AM PDT","500","1000","The main experiment item","yes","NA","ABX_v3.osexp","/home/ubuntu/Desktop/panara","no","no","mono","no","18","no","white","no","yes","768","13","53","/home/ubuntu/Desktop/panara/subject-105.csv","Jazzy James","3.1.3","4.2.2.wav","4.2.4.wav","2.2.4.wav","0","1","return","1","NA","1345","17703","1345","NA","9275580","return","2","1024","2","48000","-16","experiment","4.2.2.wav","2.2.4.wav","4.2.4.wav","105","odd","9681464","9683915","9683415","9682694","9566855","NA","9680463","9684671","792","NA","NA","9680461","9686017","9606539","9680461","9276376","NA","9680463","795","New experiment","NA","0","0","0","yes","1024"
"undefined","undefined","undefined","undefined","black","no","legacy","0","uniform","undefined","undefined","undefined","68","68","137","68","68","NA","68","68","0","0","0","68","68","0","68","0","NA","68","0","Mon 10 Jun 2019 11:36:09 AM PDT","500","1000","The main experiment item","yes","NA","ABX_v3.osexp","/home/ubuntu/Desktop/panara","yes","no","mono","no","18","no","white","no","yes","768","14","53","/home/ubuntu/Desktop/panara/subject-105.csv","Jazzy James","3.1.3","1.2.4.wav","1.2.2.wav","3.2.2.wav","0","1","return","1","NA","1371","17703","1371","NA","9275580","return","2","1024","2","48000","-16","experiment","3.2.2.wav","1.2.4.wav","1.2.2.wav","105","odd","9687185","9689704","9689204","9688425","9566855","NA","9686185","9690478","792","NA","NA","9686182","9691850","9606539","9686182","9276376","NA","9686185","795","New experiment","NA","0","0","0","yes","1024"
"undefined","undefined","undefined","undefined","black","no","legacy","0","uniform","undefined","undefined","undefined","69","69","139","69","69","NA","69","69","0","0","0","69","69","0","69","0","NA","69","0","Mon 10 Jun 2019 11:36:09 AM PDT","500","1000","The main experiment item","yes","NA","ABX_v3.osexp","/home/ubuntu/Desktop/panara","yes","no","mono","no","18","no","white","no","yes","768","15","53","/home/ubuntu/Desktop/panara/subject-105.csv","Jazzy James","3.1.3","1.1.5.wav","3.1.5.wav","3.1.3.wav","0","0","return","0","NA","856","17703","856","NA","9275580","return","2","1024","2","48000","-16","experiment","3.1.3.wav","1.1.5.wav","3.1.5.wav","105","odd","9693010","9695541","9695041","9694263","9566855","NA","9692010","9696296","792","NA","NA","9692007","9697152","9606539","9692007","9276376","NA","9692010","795","New experiment","NA","0","0","0","yes","1024"
"undefined","undefined","undefined","undefined","black","no","legacy","0","uniform","undefined","undefined","undefined","70","70","141","70","70","NA","70","70","0","0","0","70","70","0","70","0","NA","70","0","Mon 10 Jun 2019 11:36:09 AM PDT","500","1000","The main experiment item","yes","NA","ABX_v3.osexp","/home/ubuntu/Desktop/panara","no","no","mono","no","18","no","white","no","yes","768","16","53","/home/ubuntu/Desktop/panara/subject-105.csv","Jazzy James","3.1.3","3.2.3.wav","3.2.5.wav","1.2.5.wav","0","1","return","1","NA","1263","17703","1263","NA","9275580","return","2","1024","2","48000","-16","experiment","3.2.3.wav","1.2.5.wav","3.2.5.wav","105","odd","9698321","9700819","9700319","9699573","9566855","NA","9697320","9701593","792","NA","NA","9697318","9702857","9606539","9697318","9276376","NA","9697321","795","New experiment","NA","0","0","0","yes","1024"
"undefined","undefined","undefined","undefined","black","no","legacy","0","uniform","undefined","undefined","undefined","71","71","143","71","71","NA","71","71","0","0","0","71","71","0","71","0","NA","71","0","Mon 10 Jun 2019 11:36:09 AM PDT","500","1000","The main experiment item","yes","NA","ABX_v3.osexp","/home/ubuntu/Desktop/panara","no","no","mono","no","18","no","white","no","yes","768","17","53","/home/ubuntu/Desktop/panara/subject-105.csv","Jazzy James","3.1.3","2.2.1.wav","1.2.1.wav","1.2.3.wav","0","1","return","1","NA","2890","17703","2890","NA","9275580","return","2","1024","2","48000","-16","experiment","2.2.1.wav","1.2.3.wav","1.2.1.wav","105","odd","9704018","9706527","9706027","9705248","9566855","NA","9703017","9707309","792","NA","NA","9703015","9710200","9606539","9703015","9276376","NA","9703018","795","New experiment","NA","0","0","0","yes","1024"
"undefined","undefined","undefined","undefined","black","no","legacy","0","uniform","undefined","undefined","undefined","72","72","145","72","72","NA","72","72","0","0","0","72","72","0","72","0","NA","72","0","Mon 10 Jun 2019 11:36:09 AM PDT","500","1000","The main experiment item","yes","NA","ABX_v3.osexp","/home/ubuntu/Desktop/panara","no","no","mono","no","18","no","white","no","yes","768","18","53","/home/ubuntu/Desktop/panara/subject-105.csv","Jazzy James","3.1.3","3.1.1.wav","3.1.3.wav","3.2.3.wav","0","1","return","1","NA","1409","17703","1409","NA","9275580","return","2","1024","2","48000","-16","experiment","3.1.1.wav","3.2.3.wav","3.1.3.wav","105","odd","9711363","9713859","9713359","9712607","9566855","NA","9710363","9714614","792","NA","NA","9710360","9716023","9606539","9710360","9276376","NA","9710363","795","New experiment","NA","0","0","0","yes","1024"
"undefined","undefined","undefined","undefined","black","no","legacy","0","uniform","undefined","undefined","undefined","73","73","147","73","73","NA","73","73","0","0","0","73","73","0","73","0","NA","73","0","Mon 10 Jun 2019 11:36:09 AM PDT","500","1000","The main experiment item","yes","NA","ABX_v3.osexp","/home/ubuntu/Desktop/panara","no","no","mono","no","18","no","white","no","yes","768","19","53","/home/ubuntu/Desktop/panara/subject-105.csv","Jazzy James","3.1.3","4.1.3.wav","2.1.3.wav","2.1.5.wav","0","0","return","0","NA","991","17703","991","NA","9275580","return","2","1024","2","48000","-16","experiment","4.1.3.wav","2.1.5.wav","2.1.3.wav","105","odd","9717163","9719668","9719168","9718426","9566855","NA","9716163","9720423","792","NA","NA","9716161","9721415","9606539","9716161","9276376","NA","9716163","795","New experiment","NA","0","0","0","yes","1024"
"undefined","undefined","undefined","undefined","black","no","legacy","0","uniform","undefined","undefined","undefined","74","74","149","74","74","NA","74","74","0","0","0","74","74","0","74","0","NA","74","0","Mon 10 Jun 2019 11:36:09 AM PDT","500","1000","The main experiment item","yes","NA","ABX_v3.osexp","/home/ubuntu/Desktop/panara","no","no","mono","no","18","no","white","no","yes","768","20","53","/home/ubuntu/Desktop/panara/subject-105.csv","Jazzy James","3.1.3","2.2.2.wav","2.2.4.wav","2.1.4.wav","0","1","return","1","NA","1331","17703","1331","NA","9275580","return","2","1024","2","48000","-16","experiment","2.2.2.wav","2.1.4.wav","2.2.4.wav","105","odd","9722595","9725081","9724581","9723828","9566855","NA","9721594","9725827","792","NA","NA","9721591","9727159","9606539","9721591","9276376","NA","9721595","795","New experiment","NA","0","0","0","yes","1024"
"undefined","undefined","undefined","undefined","black","no","legacy","0","uniform","undefined","undefined","undefined","75","75","151","75","75","NA","75","75","0","0","0","75","75","0","75","0","NA","75","0","Mon 10 Jun 2019 11:36:09 AM PDT","500","1000","The main experiment item","yes","NA","ABX_v3.osexp","/home/ubuntu/Desktop/panara","yes","no","mono","no","18","no","white","no","yes","768","21","53","/home/ubuntu/Desktop/panara/subject-105.csv","Jazzy James","3.1.3","2.2.3.wav","1.2.3.wav","1.2.1.wav","0","0","return","0","NA","1374","17703","1374","NA","9275580","return","2","1024","2","48000","-16","experiment","1.2.1.wav","2.2.3.wav","1.2.3.wav","105","odd","9728336","9730819","9730319","9729561","9566855","NA","9727335","9731601","792","NA","NA","9727333","9732975","9606539","9727333","9276376","NA","9727336","795","New experiment","NA","0","0","0","yes","1024"
"undefined","undefined","undefined","undefined","black","no","legacy","0","uniform","undefined","undefined","undefined","76","76","153","76","76","NA","76","76","0","0","0","76","76","0","76","0","NA","76","0","Mon 10 Jun 2019 11:36:09 AM PDT","500","1000","The main experiment item","yes","NA","ABX_v3.osexp","/home/ubuntu/Desktop/panara","yes","no","mono","no","18","no","white","no","yes","768","22","53","/home/ubuntu/Desktop/panara/subject-105.csv","Jazzy James","3.1.3","4.1.5.wav","4.1.3.wav","4.2.3.wav","0","0","return","0","NA","2697","17703","2697","NA","9275580","return","2","1024","2","48000","-16","experiment","4.2.3.wav","4.1.5.wav","4.1.3.wav","105","odd","9734161","9736648","9736148","9735428","9566855","NA","9733160","9737404","792","NA","NA","9733158","9740102","9606539","9733158","9276376","NA","9733161","795","New experiment","NA","0","0","0","yes","1024"
"undefined","undefined","undefined","undefined","black","no","legacy","0","uniform","undefined","undefined","undefined","77","77","155","77","77","NA","77","77","0","0","0","77","77","0","77","0","NA","77","0","Mon 10 Jun 2019 11:36:09 AM PDT","500","1000","The main experiment item","yes","NA","ABX_v3.osexp","/home/ubuntu/Desktop/panara","yes","no","mono","no","18","no","white","no","yes","768","23","53","/home/ubuntu/Desktop/panara/subject-105.csv","Jazzy James","3.1.3","3.2.4.wav","4.2.4.wav","4.2.2.wav","0","0","return","0","NA","2475","17703","2475","NA","9275580","return","2","1024","2","48000","-16","experiment","4.2.2.wav","3.2.4.wav","4.2.4.wav","105","odd","9741261","9743769","9743269","9742514","9566855","NA","9740261","9744491","792","NA","NA","9740259","9746967","9606539","9740258","9276376","NA","9740261","795","New experiment","NA","0","0","0","yes","1024"
"undefined","undefined","undefined","undefined","black","no","legacy","0","uniform","undefined","undefined","undefined","78","78","157","78","78","NA","78","78","0","0","0","78","78","0","78","0","NA","78","0","Mon 10 Jun 2019 11:36:09 AM PDT","500","1000","The main experiment item","yes","NA","ABX_v3.osexp","/home/ubuntu/Desktop/panara","yes","no","mono","no","18","no","white","no","yes","768","24","53","/home/ubuntu/Desktop/panara/subject-105.csv","Jazzy James","3.1.3","3.1.3.wav","3.1.1.wav","4.1.1.wav","0","1","return","1","NA","1966","17703","1966","NA","9275580","return","2","1024","2","48000","-16","experiment","4.1.1.wav","3.1.3.wav","3.1.1.wav","105","odd","9748137","9750658","9750158","9749393","9566855","NA","9747137","9751383","792","NA","NA","9747134","9753349","9606539","9747134","9276376","NA","9747137","795","New experiment","NA","0","0","0","yes","1024"
"undefined","undefined","undefined","undefined","black","no","legacy","0","uniform","undefined","undefined","undefined","79","79","159","79","79","NA","79","79","0","0","0","79","79","0","79","0","NA","79","0","Mon 10 Jun 2019 11:36:09 AM PDT","500","1000","The main experiment item","yes","NA","ABX_v3.osexp","/home/ubuntu/Desktop/panara","yes","no","mono","no","18","no","white","no","yes","768","25","53","/home/ubuntu/Desktop/panara/subject-105.csv","Jazzy James","3.1.3","3.2.5.wav","3.2.3.wav","3.1.3.wav","0","0","return","0","NA","862","17703","862","NA","9275580","return","2","1024","2","48000","-16","experiment","3.1.3.wav","3.2.5.wav","3.2.3.wav","105","odd","9754498","9757021","9756521","9755778","9566855","NA","9753498","9757775","792","NA","NA","9753495","9758638","9606539","9753495","9276376","NA","9753498","795","New experiment","NA","0","0","0","yes","1024"
"undefined","undefined","undefined","undefined","black","no","legacy","0","uniform","undefined","undefined","undefined","80","80","161","80","80","NA","80","80","0","0","0","80","80","0","80","0","NA","80","0","Mon 10 Jun 2019 11:36:09 AM PDT","500","1000","The main experiment item","yes","NA","ABX_v3.osexp","/home/ubuntu/Desktop/panara","yes","no","mono","no","18","no","white","no","yes","768","26","53","/home/ubuntu/Desktop/panara/subject-105.csv","Jazzy James","3.1.3","3.2.4.wav","1.2.4.wav","1.2.2.wav","0","0","return","0","NA","728","17703","728","NA","9275580","return","2","1024","2","48000","-16","experiment","1.2.2.wav","3.2.4.wav","1.2.4.wav","105","odd","9759797","9762306","9761806","9761052","9566855","NA","9758797","9763093","792","NA","NA","9758794","9763822","9606539","9758794","9276376","NA","9758797","795","New experiment","NA","0","0","0","yes","1024"
"undefined","undefined","undefined","undefined","black","no","legacy","0","uniform","undefined","undefined","undefined","81","81","163","81","81","NA","81","81","0","0","0","81","81","0","81","0","NA","81","0","Mon 10 Jun 2019 11:36:09 AM PDT","500","1000","The main experiment item","yes","NA","ABX_v3.osexp","/home/ubuntu/Desktop/panara","no","no","mono","no","18","no","white","no","yes","768","27","53","/home/ubuntu/Desktop/panara/subject-105.csv","Jazzy James","3.1.3","4.1.3.wav","4.1.5.wav","2.1.5.wav","0","1","return","1","NA","1271","17703","1271","NA","9275580","return","2","1024","2","48000","-16","experiment","4.1.3.wav","2.1.5.wav","4.1.5.wav","105","odd","9764975","9767427","9766927","9766211","9566855","NA","9763975","9768165","792","NA","NA","9763972","9769436","9606539","9763972","9276376","NA","9763975","795","New experiment","NA","0","0","0","yes","1024"
"undefined","undefined","undefined","undefined","black","no","legacy","0","uniform","undefined","undefined","undefined","82","82","165","82","82","NA","82","82","0","0","0","82","82","0","82","0","NA","82","0","Mon 10 Jun 2019 11:36:09 AM PDT","500","1000","The main experiment item","yes","NA","ABX_v3.osexp","/home/ubuntu/Desktop/panara","yes","no","mono","no","18","no","white","no","yes","768","28","53","/home/ubuntu/Desktop/panara/subject-105.csv","Jazzy James","3.1.3","1.1.4.wav","3.1.4.wav","3.1.2.wav","0","0","return","0","NA","646","17703","646","NA","9275580","return","2","1024","2","48000","-16","experiment","3.1.2.wav","1.1.4.wav","3.1.4.wav","105","odd","9770606","9773143","9772643","9771867","9566855","NA","9769605","9773925","792","NA","NA","9769602","9774572","9606539","9769602","9276376","NA","9769605","795","New experiment","NA","0","0","0","yes","1024"
"undefined","undefined","undefined","undefined","black","no","legacy","0","uniform","undefined","undefined","undefined","83","83","167","83","83","NA","83","83","0","0","0","83","83","0","83","0","NA","83","0","Mon 10 Jun 2019 11:36:09 AM PDT","500","1000","The main experiment item","yes","NA","ABX_v3.osexp","/home/ubuntu/Desktop/panara","no","no","mono","no","18","no","white","no","yes","768","29","53","/home/ubuntu/Desktop/panara/subject-105.csv","Jazzy James","3.1.3","2.1.1.wav","2.2.1.wav","2.2.3.wav","0","0","return","0","NA","1112","17703","1112","NA","9275580","return","2","1024","2","48000","-16","experiment","2.1.1.wav","2.2.3.wav","2.2.1.wav","105","odd","9775753","9778262","9777762","9777008","9566855","NA","9774753","9778987","792","NA","NA","9774750","9780100","9606539","9774750","9276376","NA","9774753","795","New experiment","NA","0","0","0","yes","1024"
"undefined","undefined","undefined","undefined","black","no","legacy","0","uniform","undefined","undefined","undefined","84","84","169","84","84","NA","84","84","0","0","0","84","84","0","84","0","NA","84","0","Mon 10 Jun 2019 11:36:09 AM PDT","500","1000","The main experiment item","yes","NA","ABX_v3.osexp","/home/ubuntu/Desktop/panara","yes","no","mono","no","18","no","white","no","yes","768","30","53","/home/ubuntu/Desktop/panara/subject-105.csv","Jazzy James","3.1.3","4.1.5.wav","4.1.3.wav","2.1.3.wav","0","1","return","1","NA","1203","17703","1203","NA","9275580","return","2","1024","2","48000","-16","experiment","2.1.3.wav","4.1.5.wav","4.1.3.wav","105","odd","9781274","9783749","9783249","9782530","9566855","NA","9780274","9784505","792","NA","NA","9780272","9785708","9606539","9780271","9276376","NA","9780274","795","New experiment","NA","0","0","0","yes","1024"
"undefined","undefined","undefined","undefined","black","no","legacy","0","uniform","undefined","undefined","undefined","85","85","171","85","85","NA","85","85","0","0","0","85","85","0","85","0","NA","85","0","Mon 10 Jun 2019 11:36:09 AM PDT","500","1000","The main experiment item","yes","NA","ABX_v3.osexp","/home/ubuntu/Desktop/panara","yes","no","mono","no","18","no","white","no","yes","768","31","53","/home/ubuntu/Desktop/panara/subject-105.csv","Jazzy James","3.1.3","2.1.4.wav","4.1.4.wav","4.1.2.wav","0","0","return","0","NA","1348","17703","1348","NA","9275580","return","2","1024","2","48000","-16","experiment","4.1.2.wav","2.1.4.wav","4.1.4.wav","105","odd","9786882","9789357","9788857","9788131","9566855","NA","9785882","9790094","792","NA","NA","9785879","9791443","9606539","9785879","9276376","NA","9785882","795","New experiment","NA","0","0","0","yes","1024"
"undefined","undefined","undefined","undefined","black","no","legacy","0","uniform","undefined","undefined","undefined","86","86","173","86","86","NA","86","86","0","0","0","86","86","0","86","0","NA","86","0","Mon 10 Jun 2019 11:36:09 AM PDT","500","1000","The main experiment item","yes","NA","ABX_v3.osexp","/home/ubuntu/Desktop/panara","yes","no","mono","no","18","no","white","no","yes","768","32","53","/home/ubuntu/Desktop/panara/subject-105.csv","Jazzy James","3.1.3","3.1.4.wav","3.1.2.wav","1.1.2.wav","0","1","return","1","NA","1228","17703","1228","NA","9275580","return","2","1024","2","48000","-16","experiment","1.1.2.wav","3.1.4.wav","3.1.2.wav","105","odd","9792613","9795163","9794663","9793882","9566855","NA","9791613","9795974","792","NA","NA","9791610","9797203","9606539","9791610","9276376","NA","9791613","795","New experiment","NA","0","0","0","yes","1024"
"undefined","undefined","undefined","undefined","black","no","legacy","0","uniform","undefined","undefined","undefined","87","87","175","87","87","NA","87","87","0","0","0","87","87","0","87","0","NA","87","0","Mon 10 Jun 2019 11:36:09 AM PDT","500","1000","The main experiment item","yes","NA","ABX_v3.osexp","/home/ubuntu/Desktop/panara","yes","no","mono","no","18","no","white","no","yes","768","33","53","/home/ubuntu/Desktop/panara/subject-105.csv","Jazzy James","3.1.3","1.1.3.wav","2.1.3.wav","2.1.1.wav","0","1","return","1","NA","1150","17703","1150","NA","9275580","return","2","1024","2","48000","-16","experiment","2.1.1.wav","1.1.3.wav","2.1.3.wav","105","odd","9798388","9800930","9800430","9799678","9566855","NA","9797388","9801685","792","NA","NA","9797385","9802835","9606539","9797385","9276376","NA","9797388","795","New experiment","NA","0","0","0","yes","1024"
"undefined","undefined","undefined","undefined","black","no","legacy","0","uniform","undefined","undefined","undefined","88","88","177","88","88","NA","88","88","0","0","0","88","88","0","88","0","NA","88","0","Mon 10 Jun 2019 11:36:09 AM PDT","500","1000","The main experiment item","yes","NA","ABX_v3.osexp","/home/ubuntu/Desktop/panara","yes","no","mono","no","18","no","white","no","yes","768","34","53","/home/ubuntu/Desktop/panara/subject-105.csv","Jazzy James","3.1.3","1.1.4.wav","1.1.2.wav","1.2.2.wav","0","1","return","1","NA","1140","17703","1140","NA","9275580","return","2","1024","2","48000","-16","experiment","1.2.2.wav","1.1.4.wav","1.1.2.wav","105","odd","9804010","9806590","9806090","9805283","9566855","NA","9803009","9807365","792","NA","NA","9803007","9808506","9606539","9803007","9276376","NA","9803010","795","New experiment","NA","0","0","0","yes","1024"
"undefined","undefined","undefined","undefined","black","no","legacy","0","uniform","undefined","undefined","undefined","89","89","179","89","89","NA","89","89","0","0","0","89","89","0","89","0","NA","89","0","Mon 10 Jun 2019 11:36:09 AM PDT","500","1000","The main experiment item","yes","NA","ABX_v3.osexp","/home/ubuntu/Desktop/panara","yes","no","mono","no","18","no","white","no","yes","768","35","53","/home/ubuntu/Desktop/panara/subject-105.csv","Jazzy James","3.1.3","3.1.4.wav","3.2.4.wav","3.2.2.wav","0","0","return","0","NA","1002","17703","1002","NA","9275580","return","2","1024","2","48000","-16","experiment","3.2.2.wav","3.1.4.wav","3.2.4.wav","105","odd","9809669","9812216","9811716","9810963","9566855","NA","9808669","9812999","792","NA","NA","9808666","9814002","9606539","9808666","9276376","NA","9808669","795","New experiment","NA","0","0","0","yes","1024"
"undefined","undefined","undefined","undefined","black","no","legacy","0","uniform","undefined","undefined","undefined","90","90","181","90","90","NA","90","90","0","0","0","90","90","0","90","0","NA","90","0","Mon 10 Jun 2019 11:36:09 AM PDT","500","1000","The main experiment item","yes","NA","ABX_v3.osexp","/home/ubuntu/Desktop/panara","no","no","mono","no","18","no","white","no","yes","768","36","53","/home/ubuntu/Desktop/panara/subject-105.csv","Jazzy James","3.1.3","4.2.3.wav","4.2.5.wav","4.1.5.wav","0","0","return","0","NA","599","17703","599","NA","9275580","return","2","1024","2","48000","-16","experiment","4.2.3.wav","4.1.5.wav","4.2.5.wav","105","odd","9815189","9817646","9817146","9816425","9566855","NA","9814189","9818395","792","NA","NA","9814187","9818995","9606539","9814187","9276376","NA","9814189","795","New experiment","NA","0","0","0","yes","1024"
"undefined","undefined","undefined","undefined","black","no","legacy","0","uniform","undefined","undefined","undefined","91","91","183","91","91","NA","91","91","0","0","0","91","91","0","91","0","NA","91","0","Mon 10 Jun 2019 11:36:09 AM PDT","500","1000","The main experiment item","yes","NA","ABX_v3.osexp","/home/ubuntu/Desktop/panara","yes","no","mono","no","18","no","white","no","yes","768","37","53","/home/ubuntu/Desktop/panara/subject-105.csv","Jazzy James","3.1.3","4.1.4.wav","4.2.4.wav","4.2.2.wav","0","1","return","1","NA","2028","17703","2028","NA","9275580","return","2","1024","2","48000","-16","experiment","4.2.2.wav","4.1.4.wav","4.2.4.wav","105","odd","9820161","9822617","9822117","9821396","9566855","NA","9819161","9823373","792","NA","NA","9819158","9825401","9606539","9819158","9276376","NA","9819161","795","New experiment","NA","0","0","0","yes","1024"
"undefined","undefined","undefined","undefined","black","no","legacy","0","uniform","undefined","undefined","undefined","92","92","185","92","92","NA","92","92","0","0","0","92","92","0","92","0","NA","92","0","Mon 10 Jun 2019 11:36:09 AM PDT","500","1000","The main experiment item","yes","NA","ABX_v3.osexp","/home/ubuntu/Desktop/panara","yes","no","mono","no","18","no","white","no","yes","768","38","53","/home/ubuntu/Desktop/panara/subject-105.csv","Jazzy James","3.1.3","4.1.3.wav","3.1.3.wav","3.1.1.wav","0","0","return","0","NA","938","17703","938","NA","9275580","return","2","1024","2","48000","-16","experiment","3.1.1.wav","4.1.3.wav","3.1.3.wav","105","odd","9826557","9829059","9828559","9827808","9566855","NA","9825557","9829815","792","NA","NA","9825555","9830754","9606539","9825555","9276376","NA","9825557","795","New experiment","NA","0","0","0","yes","1024"
"undefined","undefined","undefined","undefined","black","no","legacy","0","uniform","undefined","undefined","undefined","93","93","187","93","93","NA","93","93","0","0","0","93","93","0","93","0","NA","93","0","Mon 10 Jun 2019 11:36:09 AM PDT","500","1000","The main experiment item","yes","NA","ABX_v3.osexp","/home/ubuntu/Desktop/panara","no","no","mono","no","18","no","white","no","yes","768","39","53","/home/ubuntu/Desktop/panara/subject-105.csv","Jazzy James","3.1.3","3.1.2.wav","3.1.4.wav","3.2.4.wav","0","0","return","0","NA","2472","17703","2472","NA","9275580","return","2","1024","2","48000","-16","experiment","3.1.2.wav","3.2.4.wav","3.1.4.wav","105","odd","9831919","9834478","9833978","9833198","9566855","NA","9830919","9835233","792","NA","NA","9830917","9837706","9606539","9830917","9276376","NA","9830919","795","New experiment","NA","0","0","0","yes","1024"
"undefined","undefined","undefined","undefined","black","no","legacy","0","uniform","undefined","undefined","undefined","94","94","189","94","94","NA","94","94","0","0","0","94","94","0","94","0","NA","94","0","Mon 10 Jun 2019 11:36:09 AM PDT","500","1000","The main experiment item","yes","NA","ABX_v3.osexp","/home/ubuntu/Desktop/panara","no","no","mono","no","18","no","white","no","yes","768","40","53","/home/ubuntu/Desktop/panara/subject-105.csv","Jazzy James","3.1.3","1.2.3.wav","3.2.3.wav","3.2.5.wav","0","0","return","0","NA","551","17703","551","NA","9275580","return","2","1024","2","48000","-16","experiment","1.2.3.wav","3.2.5.wav","3.2.3.wav","105","odd","9838876","9841398","9840898","9840148","9566855","NA","9837876","9842178","792","NA","NA","9837874","9842729","9606539","9837874","9276376","NA","9837876","795","New experiment","NA","0","0","0","yes","1024"
"undefined","undefined","undefined","undefined","black","no","legacy","0","uniform","undefined","undefined","undefined","95","95","191","95","95","NA","95","95","0","0","0","95","95","0","95","0","NA","95","0","Mon 10 Jun 2019 11:36:09 AM PDT","500","1000","The main experiment item","yes","NA","ABX_v3.osexp","/home/ubuntu/Desktop/panara","yes","no","mono","no","18","no","white","no","yes","768","41","53","/home/ubuntu/Desktop/panara/subject-105.csv","Jazzy James","3.1.3","4.2.4.wav","4.2.2.wav","4.1.2.wav","0","0","return","0","NA","935","17703","935","NA","9275580","return","2","1024","2","48000","-16","experiment","4.1.2.wav","4.2.4.wav","4.2.2.wav","105","odd","9843909","9846340","9845840","9845123","9566855","NA","9842909","9847057","792","NA","NA","9842906","9847993","9606539","9842906","9276376","NA","9842909","795","New experiment","NA","0","0","0","yes","1024"
"undefined","undefined","undefined","undefined","black","no","legacy","0","uniform","undefined","undefined","undefined","96","96","193","96","96","NA","96","96","0","0","0","96","96","0","96","0","NA","96","0","Mon 10 Jun 2019 11:36:09 AM PDT","500","1000","The main experiment item","yes","NA","ABX_v3.osexp","/home/ubuntu/Desktop/panara","no","no","mono","no","18","no","white","no","yes","768","42","53","/home/ubuntu/Desktop/panara/subject-105.csv","Jazzy James","3.1.3","2.1.2.wav","1.1.2.wav","1.1.4.wav","0","0","return","0","NA","1437","17703","1437","NA","9275580","return","2","1024","2","48000","-16","experiment","2.1.2.wav","1.1.4.wav","1.1.2.wav","105","odd","9849169","9851708","9851208","9850413","9566855","NA","9848169","9852491","792","NA","NA","9848167","9853929","9606539","9848167","9276376","NA","9848169","795","New experiment","NA","0","0","0","yes","1024"
"undefined","undefined","undefined","undefined","black","no","legacy","0","uniform","undefined","undefined","undefined","97","97","195","97","97","NA","97","97","0","0","0","97","97","0","97","0","NA","97","0","Mon 10 Jun 2019 11:36:09 AM PDT","500","1000","The main experiment item","yes","NA","ABX_v3.osexp","/home/ubuntu/Desktop/panara","no","no","mono","no","18","no","white","no","yes","768","43","53","/home/ubuntu/Desktop/panara/subject-105.csv","Jazzy James","3.1.3","1.2.3.wav","1.2.5.wav","2.2.5.wav","0","1","return","1","NA","711","17703","711","NA","9275580","return","2","1024","2","48000","-16","experiment","1.2.3.wav","2.2.5.wav","1.2.5.wav","105","odd","9855115","9857673","9857173","9856395","9566855","NA","9854114","9858384","792","NA","NA","9854112","9859095","9606539","9854112","9276376","NA","9854114","795","New experiment","NA","0","0","0","yes","1024"
"undefined","undefined","undefined","undefined","black","no","legacy","0","uniform","undefined","undefined","undefined","98","98","197","98","98","NA","98","98","0","0","0","98","98","0","98","0","NA","98","0","Mon 10 Jun 2019 11:36:09 AM PDT","500","1000","The main experiment item","yes","NA","ABX_v3.osexp","/home/ubuntu/Desktop/panara","yes","no","mono","no","18","no","white","no","yes","768","44","53","/home/ubuntu/Desktop/panara/subject-105.csv","Jazzy James","3.1.3","1.1.5.wav","1.1.3.wav","2.1.3.wav","0","1","return","1","NA","2406","17703","2406","NA","9275580","return","2","1024","2","48000","-16","experiment","2.1.3.wav","1.1.5.wav","1.1.3.wav","105","odd","9860261","9862806","9862306","9861520","9566855","NA","9859261","9863561","792","NA","NA","9859258","9865968","9606539","9859258","9276376","NA","9859261","795","New experiment","NA","0","0","0","yes","1024"
"undefined","undefined","undefined","undefined","black","no","legacy","0","uniform","undefined","undefined","undefined","99","99","199","99","99","NA","99","99","0","0","0","99","99","0","99","0","NA","99","0","Mon 10 Jun 2019 11:36:09 AM PDT","500","1000","The main experiment item","yes","NA","ABX_v3.osexp","/home/ubuntu/Desktop/panara","yes","no","mono","no","18","no","white","no","yes","768","45","53","/home/ubuntu/Desktop/panara/subject-105.csv","Jazzy James","3.1.3","2.1.4.wav","2.1.2.wav","2.2.2.wav","0","0","return","0","NA","964","17703","964","NA","9275580","return","2","1024","2","48000","-16","experiment","2.2.2.wav","2.1.4.wav","2.1.2.wav","105","odd","9867150","9869661","9869161","9868413","9566855","NA","9866150","9870402","792","NA","NA","9866147","9871367","9606539","9866147","9276376","NA","9866150","795","New experiment","NA","0","0","0","yes","1024"
"undefined","undefined","undefined","undefined","black","no","legacy","0","uniform","undefined","undefined","undefined","100","100","201","100","100","NA","100","100","0","0","0","100","100","0","100","0","NA","100","0","Mon 10 Jun 2019 11:36:09 AM PDT","500","1000","The main experiment item","yes","NA","ABX_v3.osexp","/home/ubuntu/Desktop/panara","no","no","mono","no","18","no","white","no","yes","768","46","53","/home/ubuntu/Desktop/panara/subject-105.csv","Jazzy James","3.1.3","2.2.3.wav","1.2.3.wav","1.2.5.wav","0","0","return","0","NA","838","22585","838","NA","9275580","return","2","1024","2","48000","-16","experiment","2.2.3.wav","1.2.5.wav","1.2.3.wav","105","odd","9895128","9897615","9897115","9896341","9871540","NA","9894128","9898390","792","NA","NA","9871537","9899229","9606539","9871537","9276376","NA","9894128","795","New experiment","NA","0","0","0","yes","1024"
"undefined","undefined","undefined","undefined","black","no","legacy","0","uniform","undefined","undefined","undefined","101","101","203","101","101","NA","101","101","0","0","0","101","101","0","101","0","NA","101","0","Mon 10 Jun 2019 11:36:09 AM PDT","500","1000","The main experiment item","yes","NA","ABX_v3.osexp","/home/ubuntu/Desktop/panara","no","no","mono","no","18","no","white","no","yes","768","47","53","/home/ubuntu/Desktop/panara/subject-105.csv","Jazzy James","3.1.3","1.1.1.wav","1.1.3.wav","2.1.3.wav","0","1","return","1","NA","455","22585","455","NA","9275580","return","2","1024","2","48000","-16","experiment","1.1.1.wav","2.1.3.wav","1.1.3.wav","105","odd","9900392","9903012","9902512","9901703","9871540","NA","9899392","9903765","792","NA","NA","9899389","9904221","9606539","9899389","9276376","NA","9899392","795","New experiment","NA","0","0","0","yes","1024"
"undefined","undefined","undefined","undefined","black","no","legacy","0","uniform","undefined","undefined","undefined","102","102","205","102","102","NA","102","102","0","0","0","102","102","0","102","0","NA","102","0","Mon 10 Jun 2019 11:36:09 AM PDT","500","1000","The main experiment item","yes","NA","ABX_v3.osexp","/home/ubuntu/Desktop/panara","no","no","mono","no","18","no","white","no","yes","768","48","53","/home/ubuntu/Desktop/panara/subject-105.csv","Jazzy James","3.1.3","4.1.3.wav","4.1.5.wav","3.1.5.wav","0","1","return","1","NA","1382","22585","1382","NA","9275580","return","2","1024","2","48000","-16","experiment","4.1.3.wav","3.1.5.wav","4.1.5.wav","105","odd","9905397","9907853","9907353","9906630","9871540","NA","9904396","9908638","792","NA","NA","9904394","9910021","9606539","9904394","9276376","NA","9904397","795","New experiment","NA","0","0","0","yes","1024"
"undefined","undefined","undefined","undefined","black","no","legacy","0","uniform","undefined","undefined","undefined","103","103","207","103","103","NA","103","103","0","0","0","103","103","0","103","0","NA","103","0","Mon 10 Jun 2019 11:36:09 AM PDT","500","1000","The main experiment item","yes","NA","ABX_v3.osexp","/home/ubuntu/Desktop/panara","no","no","mono","no","18","no","white","no","yes","768","49","53","/home/ubuntu/Desktop/panara/subject-105.csv","Jazzy James","3.1.3","4.2.3.wav","4.2.5.wav","2.2.5.wav","0","1","return","1","NA","679","22585","679","NA","9275580","return","2","1024","2","48000","-16","experiment","4.2.3.wav","2.2.5.wav","4.2.5.wav","105","odd","9911205","9913662","9913162","9912447","9871540","NA","9910205","9914381","792","NA","NA","9910203","9915060","9606539","9910203","9276376","NA","9910205","795","New experiment","NA","0","0","0","yes","1024"
"undefined","undefined","undefined","undefined","black","no","legacy","0","uniform","undefined","undefined","undefined","104","104","209","104","104","NA","104","104","0","0","0","104","104","0","104","0","NA","104","0","Mon 10 Jun 2019 11:36:09 AM PDT","500","1000","The main experiment item","yes","NA","ABX_v3.osexp","/home/ubuntu/Desktop/panara","yes","no","mono","no","18","no","white","no","yes","768","50","53","/home/ubuntu/Desktop/panara/subject-105.csv","Jazzy James","3.1.3","4.2.4.wav","4.2.2.wav","3.2.2.wav","0","1","return","1","NA","810","22585","810","NA","9275580","return","2","1024","2","48000","-16","experiment","3.2.2.wav","4.2.4.wav","4.2.2.wav","105","odd","9916254","9918714","9918214","9917498","9871540","NA","9915254","9919473","792","NA","NA","9915252","9920284","9606539","9915252","9276376","NA","9915254","795","New experiment","NA","0","0","0","yes","1024"
"undefined","undefined","undefined","undefined","black","no","legacy","0","uniform","undefined","undefined","undefined","105","105","211","105","105","NA","105","105","0","0","0","105","105","0","105","0","NA","105","0","Mon 10 Jun 2019 11:36:09 AM PDT","500","1000","The main experiment item","yes","NA","ABX_v3.osexp","/home/ubuntu/Desktop/panara","yes","no","mono","no","18","no","white","no","yes","768","51","53","/home/ubuntu/Desktop/panara/subject-105.csv","Jazzy James","3.1.3","4.2.3.wav","4.2.1.wav","3.2.1.wav","0","1","return","1","NA","1614","22585","1614","NA","9275580","return","2","1024","2","48000","-16","experiment","3.2.1.wav","4.2.3.wav","4.2.1.wav","105","odd","9921440","9923930","9923430","9922703","9871540","NA","9920439","9924701","792","NA","NA","9920437","9926316","9606539","9920437","9276376","NA","9920440","795","New experiment","NA","0","0","0","yes","1024"
"undefined","undefined","undefined","undefined","black","no","legacy","0","uniform","undefined","undefined","undefined","106","106","213","106","106","NA","106","106","0","0","0","106","106","0","106","0","NA","106","0","Mon 10 Jun 2019 11:36:09 AM PDT","500","1000","The main experiment item","yes","NA","ABX_v3.osexp","/home/ubuntu/Desktop/panara","yes","no","mono","no","18","no","white","no","yes","768","52","53","/home/ubuntu/Desktop/panara/subject-105.csv","Jazzy James","3.1.3","1.2.3.wav","3.2.3.wav","3.2.1.wav","0","0","return","0","NA","737","22585","737","NA","9275580","return","2","1024","2","48000","-16","experiment","3.2.1.wav","1.2.3.wav","3.2.3.wav","105","odd","9927490","9930023","9929523","9928773","9871540","NA","9926489","9930786","792","NA","NA","9926486","9931523","9606539","9926486","9276376","NA","9926490","795","New experiment","NA","0","0","0","yes","1024"
"undefined","undefined","undefined","undefined","black","no","legacy","0","uniform","undefined","undefined","undefined","107","107","215","107","107","NA","107","107","0","0","0","107","107","0","107","0","NA","107","0","Mon 10 Jun 2019 11:36:09 AM PDT","500","1000","The main experiment item","yes","NA","ABX_v3.osexp","/home/ubuntu/Desktop/panara","no","no","mono","no","18","no","white","no","yes","768","53","53","/home/ubuntu/Desktop/panara/subject-105.csv","Jazzy James","3.1.3","1.2.2.wav","1.2.4.wav","1.1.4.wav","0","1","return","1","NA","940","22585","940","NA","9275580","return","2","1024","2","48000","-16","experiment","1.2.2.wav","1.1.4.wav","1.2.4.wav","105","odd","9932702","9935231","9934731","9933979","9871540","NA","9931702","9935991","792","NA","NA","9931700","9936932","9606539","9931700","9276376","NA","9931702","795","New experiment","NA","0","0","0","yes","1024"
"undefined","undefined","undefined","undefined","black","no","legacy","0","uniform","undefined","undefined","undefined","108","108","217","108","108","NA","108","108","0","0","0","108","108","0","108","0","NA","108","0","Mon 10 Jun 2019 11:36:09 AM PDT","500","1000","The main experiment item","yes","NA","ABX_v3.osexp","/home/ubuntu/Desktop/panara","no","no","mono","no","18","no","white","no","yes","768","54","53","/home/ubuntu/Desktop/panara/subject-105.csv","Jazzy James","3.1.3","1.2.1.wav","2.2.1.wav","2.2.3.wav","0","0","return","0","NA","845","22585","845","NA","9275580","return","2","1024","2","48000","-16","experiment","1.2.1.wav","2.2.3.wav","2.2.1.wav","105","odd","9938096","9940632","9940132","9939391","9871540","NA","9937096","9941381","792","NA","NA","9937093","9942227","9606539","9937093","9276376","NA","9937096","795","New experiment","NA","0","0","0","yes","1024"
"undefined","undefined","undefined","undefined","black","no","legacy","0","uniform","undefined","undefined","undefined","109","109","219","109","109","NA","109","109","0","0","0","109","109","0","109","0","NA","109","0","Mon 10 Jun 2019 11:36:09 AM PDT","500","1000","The main experiment item","yes","NA","ABX_v3.osexp","/home/ubuntu/Desktop/panara","no","no","mono","no","18","no","white","no","yes","768","55","53","/home/ubuntu/Desktop/panara/subject-105.csv","Jazzy James","3.1.3","4.1.1.wav","4.1.3.wav","4.2.3.wav","0","0","return","0","NA","3421","22585","3421","NA","9275580","return","2","1024","2","48000","-16","experiment","4.1.1.wav","4.2.3.wav","4.1.3.wav","105","odd","9943385","9945832","9945332","9944610","9871540","NA","9942385","9946581","792","NA","NA","9942382","9950002","9606539","9942382","9276376","NA","9942385","795","New experiment","NA","0","0","0","yes","1024"
"undefined","undefined","undefined","undefined","black","no","legacy","0","uniform","undefined","undefined","undefined","110","110","221","110","110","NA","110","110","0","0","0","110","110","0","110","0","NA","110","0","Mon 10 Jun 2019 11:36:09 AM PDT","500","1000","The main experiment item","yes","NA","ABX_v3.osexp","/home/ubuntu/Desktop/panara","yes","no","mono","no","18","no","white","no","yes","768","56","53","/home/ubuntu/Desktop/panara/subject-105.csv","Jazzy James","3.1.3","3.2.3.wav","3.2.1.wav","1.2.1.wav","0","1","return","1","NA","1146","22585","1146","NA","9275580","return","2","1024","2","48000","-16","experiment","1.2.1.wav","3.2.3.wav","3.2.1.wav","105","odd","9951133","9953633","9953132","9952381","9871540","NA","9950133","9954407","792","NA","NA","9950130","9955554","9606539","9950130","9276376","NA","9950133","795","New experiment","NA","0","0","0","yes","1024"
"undefined","undefined","undefined","undefined","black","no","legacy","0","uniform","undefined","undefined","undefined","111","111","223","111","111","NA","111","111","0","0","0","111","111","0","111","0","NA","111","0","Mon 10 Jun 2019 11:36:09 AM PDT","500","1000","The main experiment item","yes","NA","ABX_v3.osexp","/home/ubuntu/Desktop/panara","yes","no","mono","no","18","no","white","no","yes","768","57","53","/home/ubuntu/Desktop/panara/subject-105.csv","Jazzy James","3.1.3","3.2.5.wav","3.1.5.wav","3.1.3.wav","0","0","return","0","NA","1471","22585","1471","NA","9275580","return","2","1024","2","48000","-16","experiment","3.1.3.wav","3.2.5.wav","3.1.5.wav","105","odd","9956699","9959258","9958758","9957978","9871540","NA","9955699","9960010","792","NA","NA","9955697","9961482","9606539","9955697","9276376","NA","9955699","795","New experiment","NA","0","0","0","yes","1024"
