"acc","accuracy","average_response_time","avg_rt","background","bidi","canvas_backend","compensation","coordinates","correct","correct_display_selecting","correct_welcome","count_A","count_B","count_ISI","count_X","count_break","count_determine_break","count_display_listening","count_display_selecting","count_experiment","count_finished","count_getting_started","count_new_inline_script","count_new_logger","count_new_loop","count_new_sequence","count_plain_block","count_setup_breaks","count_wait_nextitem","count_welcome","datetime","delay_ISI","delay_wait_nextitem","description","disable_garbage_collection","empty_column","experiment_file","experiment_path","flip_order","font_bold","font_family","font_italic","font_size","font_underline","foreground","form_clicks","fullscreen","height","live_row","live_row_plain_block","logfile","opensesame_codename","opensesame_version","play1","play2","play3","repeat_cycle","response","response_break","response_display_selecting","response_finished","response_time","response_time_break","response_time_display_selecting","response_time_finished","response_time_welcome","response_welcome","round_decimals","sound_buf_size","sound_channels","sound_freq","sound_sample_size","start","stimA","stimB","stimX","subject_nr","subject_parity","time_A","time_B","time_ISI","time_X","time_break","time_determine_break","time_display_listening","time_display_selecting","time_experiment","time_finished","time_getting_started","time_new_inline_script","time_new_logger","time_new_loop","time_new_sequence","time_plain_block","time_setup_breaks","time_wait_nextitem","time_welcome","title","to_break","total_correct","total_response_time","total_responses","uniform_coordinates","width"
"undefined","undefined","undefined","undefined","black","no","legacy","0","uniform","undefined","undefined","undefined","0","0","1","0","0","NA","0","0","0","0","0","0","0","0","0","0","NA","0","0","Thu 30 May 2019 10:46:36 AM PDT","500","1000","The main experiment item","yes","NA","ABX_v3.osexp","/home/ubuntu/Desktop/panara","yes","no","mono","no","18","no","white","no","yes","768","0","0","/home/ubuntu/Desktop/panara/subject-701.csv","Jazzy James","3.1.3","5.2.3.wav","5.2.3.wav","5.2.1.wav","0","1","NA","1","NA","3894","NA","3894","NA","1114755","space","2","1024","2","48000","-16","experiment","5.2.1.wav","5.2.3.wav","5.2.3.wav","701","odd","1116563","1119306","1118806","1118082","NA","NA","1115563","1119994","715","NA","NA","1115560","1123888","NA","1115560","1115473","NA","1115563","717","New experiment","NA","0","0","0","yes","1024"
"undefined","undefined","undefined","undefined","black","no","legacy","0","uniform","undefined","undefined","undefined","1","1","3","1","1","NA","1","1","0","0","0","1","1","0","1","0","NA","1","0","Thu 30 May 2019 10:46:36 AM PDT","500","1000","The main experiment item","yes","NA","ABX_v3.osexp","/home/ubuntu/Desktop/panara","yes","no","mono","no","18","no","white","no","yes","768","1","1","/home/ubuntu/Desktop/panara/subject-701.csv","Jazzy James","3.1.3","4.1.5.wav","4.1.5.wav","4.1.3.wav","0","0","NA","0","NA","3813","NA","3813","NA","1114755","space","2","1024","2","48000","-16","experiment","4.1.3.wav","4.1.5.wav","4.1.5.wav","701","odd","1125179","1127599","1127099","1126388","NA","NA","1124178","1128313","715","NA","NA","1124176","1132127","NA","1124176","1115473","NA","1124179","717","New experiment","NA","0","0","0","yes","1024"
"undefined","undefined","undefined","undefined","black","no","legacy","0","uniform","undefined","undefined","undefined","2","2","5","2","2","NA","2","2","0","0","0","2","2","0","2","0","NA","2","0","Thu 30 May 2019 10:46:36 AM PDT","500","1000","The main experiment item","yes","NA","ABX_v3.osexp","/home/ubuntu/Desktop/panara","yes","no","mono","no","18","no","white","no","yes","768","2","2","/home/ubuntu/Desktop/panara/subject-701.csv","Jazzy James","3.1.3","5.2.4.wav","5.2.2.wav","5.2.2.wav","0","1","NA","1","NA","2222","NA","2222","NA","1114755","space","2","1024","2","48000","-16","experiment","5.2.2.wav","5.2.4.wav","5.2.2.wav","701","odd","1133321","1135795","1135295","1134577","NA","NA","1132321","1136489","715","NA","NA","1132318","1138711","NA","1132318","1115473","NA","1132321","717","New experiment","NA","0","0","0","yes","1024"
"undefined","undefined","undefined","undefined","black","no","legacy","0","uniform","undefined","undefined","undefined","3","3","7","3","3","NA","3","3","0","0","0","3","3","0","3","0","NA","3","0","Thu 30 May 2019 10:46:36 AM PDT","500","1000","The main experiment item","yes","NA","ABX_v3.osexp","/home/ubuntu/Desktop/panara","no","no","mono","no","18","no","white","no","yes","768","3","3","/home/ubuntu/Desktop/panara/subject-701.csv","Jazzy James","3.1.3","1.2.3.wav","1.2.5.wav","1.2.5.wav","0","0","NA","0","NA","2259","NA","2259","NA","1114755","space","2","1024","2","48000","-16","experiment","1.2.3.wav","1.2.5.wav","1.2.5.wav","701","odd","1139920","1142453","1141953","1141188","NA","NA","1138920","1143228","715","NA","NA","1138917","1145487","NA","1138917","1115473","NA","1138920","717","New experiment","NA","0","0","0","yes","1024"
"undefined","undefined","undefined","undefined","black","no","legacy","0","uniform","undefined","undefined","undefined","4","4","9","4","4","NA","4","4","0","0","0","4","4","0","4","0","NA","4","0","Thu 30 May 2019 10:46:36 AM PDT","500","1000","The main experiment item","yes","NA","ABX_v3.osexp","/home/ubuntu/Desktop/panara","yes","no","mono","no","18","no","white","no","yes","768","4","4","/home/ubuntu/Desktop/panara/subject-701.csv","Jazzy James","3.1.3","2.1.4.wav","2.1.2.wav","2.1.2.wav","0","0","NA","0","NA","1325","NA","1325","NA","1114755","space","2","1024","2","48000","-16","experiment","2.1.2.wav","2.1.4.wav","2.1.2.wav","701","odd","1146683","1149186","1148686","1147955","NA","NA","1145682","1149953","715","NA","NA","1145680","1151279","NA","1145680","1115473","NA","1145683","717","New experiment","NA","0","0","0","yes","1024"
"undefined","undefined","undefined","undefined","black","no","legacy","0","uniform","undefined","undefined","undefined","5","5","11","5","5","NA","5","5","0","0","0","5","5","0","5","0","NA","5","0","Thu 30 May 2019 10:46:36 AM PDT","500","1000","The main experiment item","yes","NA","ABX_v3.osexp","/home/ubuntu/Desktop/panara","no","no","mono","no","18","no","white","no","yes","768","5","5","/home/ubuntu/Desktop/panara/subject-701.csv","Jazzy James","3.1.3","5.2.2.wav","5.2.4.wav","5.2.4.wav","0","0","NA","0","NA","1361","NA","1361","NA","1114755","space","2","1024","2","48000","-16","experiment","5.2.2.wav","5.2.4.wav","5.2.4.wav","701","odd","1152431","1154891","1154391","1153645","NA","NA","1151431","1155644","715","NA","NA","1151428","1157006","NA","1151428","1115473","NA","1151431","717","New experiment","NA","0","0","0","yes","1024"
"undefined","undefined","undefined","undefined","black","no","legacy","0","uniform","undefined","undefined","undefined","6","6","13","6","6","NA","6","6","0","0","0","6","6","0","6","0","NA","6","0","Thu 30 May 2019 10:46:36 AM PDT","500","1000","The main experiment item","yes","NA","ABX_v3.osexp","/home/ubuntu/Desktop/panara","yes","no","mono","no","18","no","white","no","yes","768","6","6","/home/ubuntu/Desktop/panara/subject-701.csv","Jazzy James","3.1.3","4.2.5.wav","4.2.3.wav","4.2.3.wav","0","1","NA","1","NA","1707","NA","1707","NA","1114755","space","2","1024","2","48000","-16","experiment","4.2.3.wav","4.2.5.wav","4.2.3.wav","701","odd","1158208","1160707","1160207","1159465","NA","NA","1157208","1161466","715","NA","NA","1157205","1163173","NA","1157205","1115473","NA","1157208","717","New experiment","NA","0","0","0","yes","1024"
"undefined","undefined","undefined","undefined","black","no","legacy","0","uniform","undefined","undefined","undefined","7","7","15","7","7","NA","7","7","0","0","0","7","7","0","7","0","NA","7","0","Thu 30 May 2019 10:46:36 AM PDT","500","1000","The main experiment item","yes","NA","ABX_v3.osexp","/home/ubuntu/Desktop/panara","yes","no","mono","no","18","no","white","no","yes","768","7","7","/home/ubuntu/Desktop/panara/subject-701.csv","Jazzy James","3.1.3","5.2.5.wav","5.2.5.wav","5.2.3.wav","0","1","NA","1","NA","1327","NA","1327","NA","1114755","space","2","1024","2","48000","-16","experiment","5.2.3.wav","5.2.5.wav","5.2.5.wav","701","odd","1164359","1166812","1166312","1165587","NA","NA","1163359","1167527","715","NA","NA","1163356","1168854","NA","1163356","1115473","NA","1163359","717","New experiment","NA","0","0","0","yes","1024"
"undefined","undefined","undefined","undefined","black","no","legacy","0","uniform","undefined","undefined","undefined","8","8","17","8","8","NA","8","8","0","0","0","8","8","0","8","0","NA","8","0","Thu 30 May 2019 10:46:36 AM PDT","500","1000","The main experiment item","yes","NA","ABX_v3.osexp","/home/ubuntu/Desktop/panara","no","no","mono","no","18","no","white","no","yes","768","8","8","/home/ubuntu/Desktop/panara/subject-701.csv","Jazzy James","3.1.3","4.1.1.wav","4.1.1.wav","4.1.3.wav","0","0","NA","0","NA","1341","NA","1341","NA","1114755","space","2","1024","2","48000","-16","experiment","4.1.1.wav","4.1.3.wav","4.1.1.wav","701","odd","1170049","1172519","1172019","1171292","NA","NA","1169048","1173248","715","NA","NA","1169046","1174590","NA","1169046","1115473","NA","1169049","717","New experiment","NA","0","0","0","yes","1024"
"undefined","undefined","undefined","undefined","black","no","legacy","0","uniform","undefined","undefined","undefined","9","9","19","9","9","NA","9","9","0","0","0","9","9","0","9","0","NA","9","0","Thu 30 May 2019 10:46:36 AM PDT","500","1000","The main experiment item","yes","NA","ABX_v3.osexp","/home/ubuntu/Desktop/panara","yes","no","mono","no","18","no","white","no","yes","768","9","9","/home/ubuntu/Desktop/panara/subject-701.csv","Jazzy James","3.1.3","4.1.4.wav","4.1.2.wav","4.1.2.wav","0","0","NA","0","NA","1327","NA","1327","NA","1114755","space","2","1024","2","48000","-16","experiment","4.1.2.wav","4.1.4.wav","4.1.2.wav","701","odd","1175783","1178237","1177737","1177024","NA","NA","1174783","1178982","715","NA","NA","1174780","1180309","NA","1174780","1115473","NA","1174783","717","New experiment","NA","0","0","0","yes","1024"
"undefined","undefined","undefined","undefined","black","no","legacy","0","uniform","undefined","undefined","undefined","10","10","21","10","10","NA","10","10","0","0","0","10","10","0","10","0","NA","10","0","Thu 30 May 2019 10:46:36 AM PDT","500","1000","The main experiment item","yes","NA","ABX_v3.osexp","/home/ubuntu/Desktop/panara","yes","no","mono","no","18","no","white","no","yes","768","10","10","/home/ubuntu/Desktop/panara/subject-701.csv","Jazzy James","3.1.3","3.2.4.wav","3.2.4.wav","3.2.2.wav","0","1","NA","1","NA","1082","NA","1082","NA","1114755","space","2","1024","2","48000","-16","experiment","3.2.2.wav","3.2.4.wav","3.2.4.wav","701","odd","1181463","1183976","1183476","1182717","NA","NA","1180462","1184763","715","NA","NA","1180460","1185845","NA","1180460","1115473","NA","1180462","717","New experiment","NA","0","0","0","yes","1024"
"undefined","undefined","undefined","undefined","black","no","legacy","0","uniform","undefined","undefined","undefined","11","11","23","11","11","NA","11","11","0","0","0","11","11","0","11","0","NA","11","0","Thu 30 May 2019 10:46:36 AM PDT","500","1000","The main experiment item","yes","NA","ABX_v3.osexp","/home/ubuntu/Desktop/panara","no","no","mono","no","18","no","white","no","yes","768","11","11","/home/ubuntu/Desktop/panara/subject-701.csv","Jazzy James","3.1.3","4.2.2.wav","4.2.4.wav","4.2.4.wav","0","0","NA","0","NA","879","NA","879","NA","1114755","space","2","1024","2","48000","-16","experiment","4.2.2.wav","4.2.4.wav","4.2.4.wav","701","odd","1187091","1189564","1189064","1188354","NA","NA","1186091","1190308","715","NA","NA","1186088","1191188","NA","1186088","1115473","NA","1186091","717","New experiment","NA","0","0","0","yes","1024"
"undefined","undefined","undefined","undefined","black","no","legacy","0","uniform","undefined","undefined","undefined","12","12","25","12","12","NA","12","12","0","0","0","12","12","0","12","0","NA","12","0","Thu 30 May 2019 10:46:36 AM PDT","500","1000","The main experiment item","yes","NA","ABX_v3.osexp","/home/ubuntu/Desktop/panara","no","no","mono","no","18","no","white","no","yes","768","12","12","/home/ubuntu/Desktop/panara/subject-701.csv","Jazzy James","3.1.3","1.1.2.wav","1.1.4.wav","1.1.4.wav","0","0","NA","0","NA","1287","NA","1287","NA","1114755","space","2","1024","2","48000","-16","experiment","1.1.2.wav","1.1.4.wav","1.1.4.wav","701","odd","1192348","1194902","1194402","1193617","NA","NA","1191348","1195685","715","NA","NA","1191345","1196973","NA","1191345","1115473","NA","1191348","717","New experiment","NA","0","0","0","yes","1024"
"undefined","undefined","undefined","undefined","black","no","legacy","0","uniform","undefined","undefined","undefined","13","13","27","13","13","NA","13","13","0","0","0","13","13","0","13","0","NA","13","0","Thu 30 May 2019 10:46:36 AM PDT","500","1000","The main experiment item","yes","NA","ABX_v3.osexp","/home/ubuntu/Desktop/panara","yes","no","mono","no","18","no","white","no","yes","768","13","13","/home/ubuntu/Desktop/panara/subject-701.csv","Jazzy James","3.1.3","1.2.3.wav","1.2.1.wav","1.2.1.wav","0","0","NA","0","NA","1113","NA","1113","NA","1114755","space","2","1024","2","48000","-16","experiment","1.2.1.wav","1.2.3.wav","1.2.1.wav","701","odd","1198196","1200769","1200269","1199488","NA","NA","1197195","1201547","715","NA","NA","1197192","1202660","NA","1197192","1115473","NA","1197196","717","New experiment","NA","0","0","0","yes","1024"
"undefined","undefined","undefined","undefined","black","no","legacy","0","uniform","undefined","undefined","undefined","14","14","29","14","14","NA","14","14","0","0","0","14","14","0","14","0","NA","14","0","Thu 30 May 2019 10:46:36 AM PDT","500","1000","The main experiment item","yes","NA","ABX_v3.osexp","/home/ubuntu/Desktop/panara","yes","no","mono","no","18","no","white","no","yes","768","14","14","/home/ubuntu/Desktop/panara/subject-701.csv","Jazzy James","3.1.3","3.2.3.wav","3.2.1.wav","3.2.1.wav","0","0","NA","0","NA","1235","NA","1235","NA","1114755","space","2","1024","2","48000","-16","experiment","3.2.1.wav","3.2.3.wav","3.2.1.wav","701","odd","1203862","1206400","1205900","1205138","NA","NA","1202862","1207185","715","NA","NA","1202859","1208420","NA","1202859","1115473","NA","1202862","717","New experiment","NA","0","0","0","yes","1024"
"undefined","undefined","undefined","undefined","black","no","legacy","0","uniform","undefined","undefined","undefined","15","15","31","15","15","NA","15","15","0","0","0","15","15","0","15","0","NA","15","0","Thu 30 May 2019 10:46:36 AM PDT","500","1000","The main experiment item","yes","NA","ABX_v3.osexp","/home/ubuntu/Desktop/panara","no","no","mono","no","18","no","white","no","yes","768","15","15","/home/ubuntu/Desktop/panara/subject-701.csv","Jazzy James","3.1.3","3.2.3.wav","3.2.5.wav","3.2.5.wav","0","1","NA","1","NA","1609","NA","1609","NA","1114755","space","2","1024","2","48000","-16","experiment","3.2.3.wav","3.2.5.wav","3.2.5.wav","701","odd","1209546","1212062","1211562","1210777","NA","NA","1208546","1212866","715","NA","NA","1208543","1214476","NA","1208543","1115473","NA","1208546","717","New experiment","NA","0","0","0","yes","1024"
"undefined","undefined","undefined","undefined","black","no","legacy","0","uniform","undefined","undefined","undefined","16","16","33","16","16","NA","16","16","0","0","0","16","16","0","16","0","NA","16","0","Thu 30 May 2019 10:46:36 AM PDT","500","1000","The main experiment item","yes","NA","ABX_v3.osexp","/home/ubuntu/Desktop/panara","yes","no","mono","no","18","no","white","no","yes","768","16","16","/home/ubuntu/Desktop/panara/subject-701.csv","Jazzy James","3.1.3","3.1.3.wav","3.1.1.wav","3.1.1.wav","0","1","NA","1","NA","1036","NA","1036","NA","1114755","space","2","1024","2","48000","-16","experiment","3.1.1.wav","3.1.3.wav","3.1.1.wav","701","odd","1215658","1218171","1217671","1216916","NA","NA","1214658","1218919","715","NA","NA","1214656","1219955","NA","1214656","1115473","NA","1214658","717","New experiment","NA","0","0","0","yes","1024"
"undefined","undefined","undefined","undefined","black","no","legacy","0","uniform","undefined","undefined","undefined","17","17","35","17","17","NA","17","17","0","0","0","17","17","0","17","0","NA","17","0","Thu 30 May 2019 10:46:36 AM PDT","500","1000","The main experiment item","yes","NA","ABX_v3.osexp","/home/ubuntu/Desktop/panara","yes","no","mono","no","18","no","white","no","yes","768","17","17","/home/ubuntu/Desktop/panara/subject-701.csv","Jazzy James","3.1.3","4.2.4.wav","4.2.2.wav","4.2.2.wav","0","0","NA","0","NA","1301","NA","1301","NA","1114755","space","2","1024","2","48000","-16","experiment","4.2.2.wav","4.2.4.wav","4.2.2.wav","701","odd","1221113","1223556","1223056","1222331","NA","NA","1220113","1224270","715","NA","NA","1220110","1225571","NA","1220110","1115473","NA","1220113","717","New experiment","NA","0","0","0","yes","1024"
"undefined","undefined","undefined","undefined","black","no","legacy","0","uniform","undefined","undefined","undefined","18","18","37","18","18","NA","18","18","0","0","0","18","18","0","18","0","NA","18","0","Thu 30 May 2019 10:46:36 AM PDT","500","1000","The main experiment item","yes","NA","ABX_v3.osexp","/home/ubuntu/Desktop/panara","yes","no","mono","no","18","no","white","no","yes","768","18","18","/home/ubuntu/Desktop/panara/subject-701.csv","Jazzy James","3.1.3","3.1.3.wav","3.1.3.wav","3.1.1.wav","0","0","NA","0","NA","2078","NA","2078","NA","1114755","space","2","1024","2","48000","-16","experiment","3.1.1.wav","3.1.3.wav","3.1.3.wav","701","odd","1226747","1229247","1228747","1227993","NA","NA","1225747","1229995","715","NA","NA","1225745","1232074","NA","1225745","1115473","NA","1225747","717","New experiment","NA","0","0","0","yes","1024"
"undefined","undefined","undefined","undefined","black","no","legacy","0","uniform","undefined","undefined","undefined","19","19","39","19","19","NA","19","19","0","0","0","19","19","0","19","0","NA","19","0","Thu 30 May 2019 10:46:36 AM PDT","500","1000","The main experiment item","yes","NA","ABX_v3.osexp","/home/ubuntu/Desktop/panara","yes","no","mono","no","18","no","white","no","yes","768","19","19","/home/ubuntu/Desktop/panara/subject-701.csv","Jazzy James","3.1.3","3.1.4.wav","3.1.2.wav","3.1.2.wav","0","0","NA","0","NA","1483","NA","1483","NA","1114755","space","2","1024","2","48000","-16","experiment","3.1.2.wav","3.1.4.wav","3.1.2.wav","701","odd","1233270","1235844","1235344","1234558","NA","NA","1232269","1236598","715","NA","NA","1232267","1238082","NA","1232267","1115473","NA","1232270","717","New experiment","NA","0","0","0","yes","1024"
"undefined","undefined","undefined","undefined","black","no","legacy","0","uniform","undefined","undefined","undefined","20","20","41","20","20","NA","20","20","0","0","0","20","20","0","20","0","NA","20","0","Thu 30 May 2019 10:46:36 AM PDT","500","1000","The main experiment item","yes","NA","ABX_v3.osexp","/home/ubuntu/Desktop/panara","no","no","mono","no","18","no","white","no","yes","768","20","20","/home/ubuntu/Desktop/panara/subject-701.csv","Jazzy James","3.1.3","1.1.3.wav","1.1.3.wav","1.1.5.wav","0","1","NA","1","NA","2633","NA","2633","NA","1114755","space","2","1024","2","48000","-16","experiment","1.1.3.wav","1.1.5.wav","1.1.3.wav","701","odd","1239257","1241875","1241375","1240569","NA","NA","1238257","1242681","715","NA","NA","1238254","1245314","NA","1238254","1115473","NA","1238257","717","New experiment","NA","0","0","0","yes","1024"
"undefined","undefined","undefined","undefined","black","no","legacy","0","uniform","undefined","undefined","undefined","21","21","43","21","21","NA","21","21","0","0","0","21","21","0","21","0","NA","21","0","Thu 30 May 2019 10:46:36 AM PDT","500","1000","The main experiment item","yes","NA","ABX_v3.osexp","/home/ubuntu/Desktop/panara","yes","no","mono","no","18","no","white","no","yes","768","21","21","/home/ubuntu/Desktop/panara/subject-701.csv","Jazzy James","3.1.3","3.2.5.wav","3.2.3.wav","3.2.3.wav","0","0","NA","0","NA","1516","NA","1516","NA","1114755","space","2","1024","2","48000","-16","experiment","3.2.3.wav","3.2.5.wav","3.2.3.wav","701","odd","1246481","1249004","1248504","1247760","NA","NA","1245480","1249757","715","NA","NA","1245478","1251274","NA","1245478","1115473","NA","1245481","717","New experiment","NA","0","0","0","yes","1024"
"undefined","undefined","undefined","undefined","black","no","legacy","0","uniform","undefined","undefined","undefined","22","22","45","22","22","NA","22","22","0","0","0","22","22","0","22","0","NA","22","0","Thu 30 May 2019 10:46:36 AM PDT","500","1000","The main experiment item","yes","NA","ABX_v3.osexp","/home/ubuntu/Desktop/panara","yes","no","mono","no","18","no","white","no","yes","768","22","22","/home/ubuntu/Desktop/panara/subject-701.csv","Jazzy James","3.1.3","5.2.5.wav","5.2.3.wav","5.2.3.wav","0","0","NA","0","NA","959","NA","959","NA","1114755","space","2","1024","2","48000","-16","experiment","5.2.3.wav","5.2.5.wav","5.2.3.wav","701","odd","1252454","1254931","1254431","1253720","NA","NA","1251454","1255650","715","NA","NA","1251451","1256610","NA","1251451","1115473","NA","1251454","717","New experiment","NA","0","0","0","yes","1024"
"undefined","undefined","undefined","undefined","black","no","legacy","0","uniform","undefined","undefined","undefined","23","23","47","23","23","NA","23","23","0","0","0","23","23","0","23","0","NA","23","0","Thu 30 May 2019 10:46:36 AM PDT","500","1000","The main experiment item","yes","NA","ABX_v3.osexp","/home/ubuntu/Desktop/panara","yes","no","mono","no","18","no","white","no","yes","768","23","23","/home/ubuntu/Desktop/panara/subject-701.csv","Jazzy James","3.1.3","1.1.5.wav","1.1.5.wav","1.1.3.wav","0","0","NA","0","NA","1125","NA","1125","NA","1114755","space","2","1024","2","48000","-16","experiment","1.1.3.wav","1.1.5.wav","1.1.5.wav","701","odd","1257777","1260332","1259832","1259048","NA","NA","1256777","1261148","715","NA","NA","1256775","1262273","NA","1256775","1115473","NA","1256777","717","New experiment","NA","0","0","0","yes","1024"
"undefined","undefined","undefined","undefined","black","no","legacy","0","uniform","undefined","undefined","undefined","24","24","49","24","24","NA","24","24","0","0","0","24","24","0","24","0","NA","24","0","Thu 30 May 2019 10:46:36 AM PDT","500","1000","The main experiment item","yes","NA","ABX_v3.osexp","/home/ubuntu/Desktop/panara","yes","no","mono","no","18","no","white","no","yes","768","24","24","/home/ubuntu/Desktop/panara/subject-701.csv","Jazzy James","3.1.3","3.2.4.wav","3.2.2.wav","3.2.2.wav","0","0","NA","0","NA","922","NA","922","NA","1114755","space","2","1024","2","48000","-16","experiment","3.2.2.wav","3.2.4.wav","3.2.2.wav","701","odd","1263438","1265959","1265459","1264687","NA","NA","1262438","1266751","715","NA","NA","1262436","1267673","NA","1262436","1115473","NA","1262438","717","New experiment","NA","0","0","0","yes","1024"
"undefined","undefined","undefined","undefined","black","no","legacy","0","uniform","undefined","undefined","undefined","25","25","51","25","25","NA","25","25","0","0","0","25","25","0","25","0","NA","25","0","Thu 30 May 2019 10:46:36 AM PDT","500","1000","The main experiment item","yes","NA","ABX_v3.osexp","/home/ubuntu/Desktop/panara","yes","no","mono","no","18","no","white","no","yes","768","25","25","/home/ubuntu/Desktop/panara/subject-701.csv","Jazzy James","3.1.3","5.2.3.wav","5.2.1.wav","5.2.1.wav","0","0","NA","0","NA","979","NA","979","NA","1114755","space","2","1024","2","48000","-16","experiment","5.2.1.wav","5.2.3.wav","5.2.1.wav","701","odd","1268851","1271298","1270798","1270086","NA","NA","1267850","1272028","715","NA","NA","1267847","1273008","NA","1267847","1115473","NA","1267851","717","New experiment","NA","0","0","0","yes","1024"
"undefined","undefined","undefined","undefined","black","no","legacy","0","uniform","undefined","undefined","undefined","26","26","53","26","26","NA","26","26","0","0","0","26","26","0","26","0","NA","26","0","Thu 30 May 2019 10:46:36 AM PDT","500","1000","The main experiment item","yes","NA","ABX_v3.osexp","/home/ubuntu/Desktop/panara","no","no","mono","no","18","no","white","no","yes","768","26","26","/home/ubuntu/Desktop/panara/subject-701.csv","Jazzy James","3.1.3","4.2.1.wav","4.2.3.wav","4.2.3.wav","0","0","NA","0","NA","1079","NA","1079","NA","1114755","space","2","1024","2","48000","-16","experiment","4.2.1.wav","4.2.3.wav","4.2.3.wav","701","odd","1274207","1276715","1276215","1275470","NA","NA","1273206","1277497","715","NA","NA","1273203","1278577","NA","1273203","1115473","NA","1273207","717","New experiment","NA","0","0","0","yes","1024"
"undefined","undefined","undefined","undefined","black","no","legacy","0","uniform","undefined","undefined","undefined","27","27","55","27","27","NA","27","27","0","0","0","27","27","0","27","0","NA","27","0","Thu 30 May 2019 10:46:36 AM PDT","500","1000","The main experiment item","yes","NA","ABX_v3.osexp","/home/ubuntu/Desktop/panara","yes","no","mono","no","18","no","white","no","yes","768","27","27","/home/ubuntu/Desktop/panara/subject-701.csv","Jazzy James","3.1.3","2.1.5.wav","2.1.5.wav","2.1.3.wav","0","1","NA","1","NA","1697","NA","1697","NA","1114755","space","2","1024","2","48000","-16","experiment","2.1.3.wav","2.1.5.wav","2.1.5.wav","701","odd","1279843","1282344","1281844","1281093","NA","NA","1278843","1283087","715","NA","NA","1278840","1284784","NA","1278840","1115473","NA","1278843","717","New experiment","NA","0","0","0","yes","1024"
"undefined","undefined","undefined","undefined","black","no","legacy","0","uniform","undefined","undefined","undefined","28","28","57","28","28","NA","28","28","0","0","0","28","28","0","28","0","NA","28","0","Thu 30 May 2019 10:46:36 AM PDT","500","1000","The main experiment item","yes","NA","ABX_v3.osexp","/home/ubuntu/Desktop/panara","no","no","mono","no","18","no","white","no","yes","768","28","28","/home/ubuntu/Desktop/panara/subject-701.csv","Jazzy James","3.1.3","2.2.2.wav","2.2.2.wav","2.2.4.wav","0","1","NA","1","NA","1496","NA","1496","NA","1114755","space","2","1024","2","48000","-16","experiment","2.2.2.wav","2.2.4.wav","2.2.2.wav","701","odd","1285929","1288364","1287864","1287143","NA","NA","1284929","1289096","715","NA","NA","1284927","1290592","NA","1284927","1115473","NA","1284929","717","New experiment","NA","0","0","0","yes","1024"
"undefined","undefined","undefined","undefined","black","no","legacy","0","uniform","undefined","undefined","undefined","29","29","59","29","29","NA","29","29","0","0","0","29","29","0","29","0","NA","29","0","Thu 30 May 2019 10:46:36 AM PDT","500","1000","The main experiment item","yes","NA","ABX_v3.osexp","/home/ubuntu/Desktop/panara","yes","no","mono","no","18","no","white","no","yes","768","29","29","/home/ubuntu/Desktop/panara/subject-701.csv","Jazzy James","3.1.3","2.2.3.wav","2.2.1.wav","2.2.1.wav","0","0","NA","0","NA","707","NA","707","NA","1114755","space","2","1024","2","48000","-16","experiment","2.2.1.wav","2.2.3.wav","2.2.1.wav","701","odd","1291805","1294285","1293785","1293057","NA","NA","1290805","1295028","715","NA","NA","1290802","1295736","NA","1290802","1115473","NA","1290805","717","New experiment","NA","0","0","0","yes","1024"
"undefined","undefined","undefined","undefined","black","no","legacy","0","uniform","undefined","undefined","undefined","30","30","61","30","30","NA","30","30","0","0","0","30","30","0","30","0","NA","30","0","Thu 30 May 2019 10:46:36 AM PDT","500","1000","The main experiment item","yes","NA","ABX_v3.osexp","/home/ubuntu/Desktop/panara","yes","no","mono","no","18","no","white","no","yes","768","30","30","/home/ubuntu/Desktop/panara/subject-701.csv","Jazzy James","3.1.3","1.1.3.wav","1.1.3.wav","1.1.1.wav","0","1","NA","1","NA","1694","NA","1694","NA","1114755","space","2","1024","2","48000","-16","experiment","1.1.1.wav","1.1.3.wav","1.1.3.wav","701","odd","1296923","1299498","1298998","1298215","NA","NA","1295923","1300273","715","NA","NA","1295920","1301968","NA","1295920","1115473","NA","1295923","717","New experiment","NA","0","0","0","yes","1024"
"undefined","undefined","undefined","undefined","black","no","legacy","0","uniform","undefined","undefined","undefined","31","31","63","31","31","NA","31","31","0","0","0","31","31","0","31","0","NA","31","0","Thu 30 May 2019 10:46:36 AM PDT","500","1000","The main experiment item","yes","NA","ABX_v3.osexp","/home/ubuntu/Desktop/panara","yes","no","mono","no","18","no","white","no","yes","768","31","31","/home/ubuntu/Desktop/panara/subject-701.csv","Jazzy James","3.1.3","4.1.4.wav","4.1.4.wav","4.1.2.wav","0","0","NA","0","NA","1627","NA","1627","NA","1114755","space","2","1024","2","48000","-16","experiment","4.1.2.wav","4.1.4.wav","4.1.4.wav","701","odd","1303147","1305621","1305121","1304397","NA","NA","1302147","1306356","715","NA","NA","1302144","1307983","NA","1302144","1115473","NA","1302147","717","New experiment","NA","0","0","0","yes","1024"
"undefined","undefined","undefined","undefined","black","no","legacy","0","uniform","undefined","undefined","undefined","32","32","65","32","32","NA","32","32","0","0","0","32","32","0","32","0","NA","32","0","Thu 30 May 2019 10:46:36 AM PDT","500","1000","The main experiment item","yes","NA","ABX_v3.osexp","/home/ubuntu/Desktop/panara","yes","no","mono","no","18","no","white","no","yes","768","32","32","/home/ubuntu/Desktop/panara/subject-701.csv","Jazzy James","3.1.3","1.2.3.wav","1.2.3.wav","1.2.1.wav","0","0","NA","0","NA","1689","NA","1689","NA","1114755","space","2","1024","2","48000","-16","experiment","1.2.1.wav","1.2.3.wav","1.2.3.wav","701","odd","1309177","1311741","1311241","1310479","NA","NA","1308177","1312526","715","NA","NA","1308175","1314215","NA","1308174","1115473","NA","1308177","717","New experiment","NA","0","0","0","yes","1024"
"undefined","undefined","undefined","undefined","black","no","legacy","0","uniform","undefined","undefined","undefined","33","33","67","33","33","NA","33","33","0","0","0","33","33","0","33","0","NA","33","0","Thu 30 May 2019 10:46:36 AM PDT","500","1000","The main experiment item","yes","NA","ABX_v3.osexp","/home/ubuntu/Desktop/panara","no","no","mono","no","18","no","white","no","yes","768","33","33","/home/ubuntu/Desktop/panara/subject-701.csv","Jazzy James","3.1.3","4.1.3.wav","4.1.3.wav","4.1.5.wav","0","1","NA","1","NA","1451","NA","1451","NA","1114755","space","2","1024","2","48000","-16","experiment","4.1.3.wav","4.1.5.wav","4.1.3.wav","701","odd","1315377","1317840","1317340","1316628","NA","NA","1314376","1318554","715","NA","NA","1314374","1320006","NA","1314374","1115473","NA","1314377","717","New experiment","NA","0","0","0","yes","1024"
"undefined","undefined","undefined","undefined","black","no","legacy","0","uniform","undefined","undefined","undefined","34","34","69","34","34","NA","34","34","0","0","0","34","34","0","34","0","NA","34","0","Thu 30 May 2019 10:46:36 AM PDT","500","1000","The main experiment item","yes","NA","ABX_v3.osexp","/home/ubuntu/Desktop/panara","yes","no","mono","no","18","no","white","no","yes","768","34","34","/home/ubuntu/Desktop/panara/subject-701.csv","Jazzy James","3.1.3","2.2.4.wav","2.2.4.wav","2.2.2.wav","0","1","NA","1","NA","1332","NA","1332","NA","1114755","space","2","1024","2","48000","-16","experiment","2.2.2.wav","2.2.4.wav","2.2.4.wav","701","odd","1321142","1323599","1323099","1322389","NA","NA","1320142","1324322","715","NA","NA","1320140","1325655","NA","1320139","1115473","NA","1320142","717","New experiment","NA","0","0","0","yes","1024"
"undefined","undefined","undefined","undefined","black","no","legacy","0","uniform","undefined","undefined","undefined","35","35","71","35","35","NA","35","35","0","0","0","35","35","0","35","0","NA","35","0","Thu 30 May 2019 10:46:36 AM PDT","500","1000","The main experiment item","yes","NA","ABX_v3.osexp","/home/ubuntu/Desktop/panara","yes","no","mono","no","18","no","white","no","yes","768","35","35","/home/ubuntu/Desktop/panara/subject-701.csv","Jazzy James","3.1.3","2.1.3.wav","2.1.1.wav","2.1.1.wav","0","0","NA","0","NA","943","NA","943","NA","1114755","space","2","1024","2","48000","-16","experiment","2.1.1.wav","2.1.3.wav","2.1.1.wav","701","odd","1326874","1329389","1328889","1328139","NA","NA","1325873","1330150","715","NA","NA","1325870","1331093","NA","1325870","1115473","NA","1325873","717","New experiment","NA","0","0","0","yes","1024"
"undefined","undefined","undefined","undefined","black","no","legacy","0","uniform","undefined","undefined","undefined","36","36","73","36","36","NA","36","36","0","0","0","36","36","0","36","0","NA","36","0","Thu 30 May 2019 10:46:36 AM PDT","500","1000","The main experiment item","yes","NA","ABX_v3.osexp","/home/ubuntu/Desktop/panara","yes","no","mono","no","18","no","white","no","yes","768","36","36","/home/ubuntu/Desktop/panara/subject-701.csv","Jazzy James","3.1.3","3.1.5.wav","3.1.5.wav","3.1.3.wav","0","0","NA","0","NA","1587","NA","1587","NA","1114755","space","2","1024","2","48000","-16","experiment","3.1.3.wav","3.1.5.wav","3.1.5.wav","701","odd","1332293","1334838","1334338","1333566","NA","NA","1331293","1335585","715","NA","NA","1331290","1337173","NA","1331290","1115473","NA","1331293","717","New experiment","NA","0","0","0","yes","1024"
"undefined","undefined","undefined","undefined","black","no","legacy","0","uniform","undefined","undefined","undefined","37","37","75","37","37","NA","37","37","0","0","0","37","37","0","37","0","NA","37","0","Thu 30 May 2019 10:46:36 AM PDT","500","1000","The main experiment item","yes","NA","ABX_v3.osexp","/home/ubuntu/Desktop/panara","no","no","mono","no","18","no","white","no","yes","768","37","37","/home/ubuntu/Desktop/panara/subject-701.csv","Jazzy James","3.1.3","1.1.2.wav","1.1.2.wav","1.1.4.wav","0","1","NA","1","NA","1610","NA","1610","NA","1114755","space","2","1024","2","48000","-16","experiment","1.1.2.wav","1.1.4.wav","1.1.2.wav","701","odd","1338389","1340985","1340485","1339702","NA","NA","1337389","1341755","715","NA","NA","1337386","1343366","NA","1337386","1115473","NA","1337389","717","New experiment","NA","0","0","0","yes","1024"
"undefined","undefined","undefined","undefined","black","no","legacy","0","uniform","undefined","undefined","undefined","38","38","77","38","38","NA","38","38","0","0","0","38","38","0","38","0","NA","38","0","Thu 30 May 2019 10:46:36 AM PDT","500","1000","The main experiment item","yes","NA","ABX_v3.osexp","/home/ubuntu/Desktop/panara","yes","no","mono","no","18","no","white","no","yes","768","38","38","/home/ubuntu/Desktop/panara/subject-701.csv","Jazzy James","3.1.3","1.2.4.wav","1.2.2.wav","1.2.2.wav","0","0","NA","0","NA","960","NA","960","NA","1114755","space","2","1024","2","48000","-16","experiment","1.2.2.wav","1.2.4.wav","1.2.2.wav","701","odd","1344527","1347066","1346566","1345784","NA","NA","1343527","1347853","715","NA","NA","1343525","1348813","NA","1343525","1115473","NA","1343527","717","New experiment","NA","0","0","0","yes","1024"
"undefined","undefined","undefined","undefined","black","no","legacy","0","uniform","undefined","undefined","undefined","39","39","79","39","39","NA","39","39","0","0","0","39","39","0","39","0","NA","39","0","Thu 30 May 2019 10:46:36 AM PDT","500","1000","The main experiment item","yes","NA","ABX_v3.osexp","/home/ubuntu/Desktop/panara","no","no","mono","no","18","no","white","no","yes","768","39","39","/home/ubuntu/Desktop/panara/subject-701.csv","Jazzy James","3.1.3","1.2.3.wav","1.2.3.wav","1.2.5.wav","0","0","NA","0","NA","1100","NA","1100","NA","1114755","space","2","1024","2","48000","-16","experiment","1.2.3.wav","1.2.5.wav","1.2.3.wav","701","odd","1349966","1352534","1352034","1351250","NA","NA","1348966","1353313","715","NA","NA","1348963","1354413","NA","1348963","1115473","NA","1348966","717","New experiment","NA","0","0","0","yes","1024"
"undefined","undefined","undefined","undefined","black","no","legacy","0","uniform","undefined","undefined","undefined","40","40","81","40","40","NA","40","40","0","0","0","40","40","0","40","0","NA","40","0","Thu 30 May 2019 10:46:36 AM PDT","500","1000","The main experiment item","yes","NA","ABX_v3.osexp","/home/ubuntu/Desktop/panara","yes","no","mono","no","18","no","white","no","yes","768","40","40","/home/ubuntu/Desktop/panara/subject-701.csv","Jazzy James","3.1.3","3.1.4.wav","3.1.4.wav","3.1.2.wav","0","1","NA","1","NA","1640","NA","1640","NA","1114755","space","2","1024","2","48000","-16","experiment","3.1.2.wav","3.1.4.wav","3.1.4.wav","701","odd","1355583","1358141","1357641","1356878","NA","NA","1354583","1358924","715","NA","NA","1354581","1360565","NA","1354581","1115473","NA","1354583","717","New experiment","NA","0","0","0","yes","1024"
"undefined","undefined","undefined","undefined","black","no","legacy","0","uniform","undefined","undefined","undefined","41","41","83","41","41","NA","41","41","0","0","0","41","41","0","41","0","NA","41","0","Thu 30 May 2019 10:46:36 AM PDT","500","1000","The main experiment item","yes","NA","ABX_v3.osexp","/home/ubuntu/Desktop/panara","no","no","mono","no","18","no","white","no","yes","768","41","41","/home/ubuntu/Desktop/panara/subject-701.csv","Jazzy James","3.1.3","2.1.2.wav","2.1.4.wav","2.1.4.wav","0","0","NA","0","NA","1273","NA","1273","NA","1114755","space","2","1024","2","48000","-16","experiment","2.1.2.wav","2.1.4.wav","2.1.4.wav","701","odd","1361762","1364284","1363784","1363042","NA","NA","1360761","1365019","715","NA","NA","1360759","1366293","NA","1360759","1115473","NA","1360762","717","New experiment","NA","0","0","0","yes","1024"
"undefined","undefined","undefined","undefined","black","no","legacy","0","uniform","undefined","undefined","undefined","42","42","85","42","42","NA","42","42","0","0","0","42","42","0","42","0","NA","42","0","Thu 30 May 2019 10:46:36 AM PDT","500","1000","The main experiment item","yes","NA","ABX_v3.osexp","/home/ubuntu/Desktop/panara","yes","no","mono","no","18","no","white","no","yes","768","42","42","/home/ubuntu/Desktop/panara/subject-701.csv","Jazzy James","3.1.3","4.2.5.wav","4.2.5.wav","4.2.3.wav","0","0","NA","0","NA","610","NA","610","NA","1114755","space","2","1024","2","48000","-16","experiment","4.2.3.wav","4.2.5.wav","4.2.5.wav","701","odd","1367480","1369939","1369439","1368714","NA","NA","1366480","1370682","715","NA","NA","1366477","1371292","NA","1366477","1115473","NA","1366480","717","New experiment","NA","0","0","0","yes","1024"
"undefined","undefined","undefined","undefined","black","no","legacy","0","uniform","undefined","undefined","undefined","43","43","87","43","43","NA","43","43","0","0","0","43","43","0","43","0","NA","43","0","Thu 30 May 2019 10:46:36 AM PDT","500","1000","The main experiment item","yes","NA","ABX_v3.osexp","/home/ubuntu/Desktop/panara","no","no","mono","no","18","no","white","no","yes","768","43","43","/home/ubuntu/Desktop/panara/subject-701.csv","Jazzy James","3.1.3","2.2.3.wav","2.2.5.wav","2.2.5.wav","0","0","NA","0","NA","473","NA","473","NA","1114755","space","2","1024","2","48000","-16","experiment","2.2.3.wav","2.2.5.wav","2.2.5.wav","701","odd","1372476","1374947","1374447","1373706","NA","NA","1371476","1375666","715","NA","NA","1371473","1376139","NA","1371473","1115473","NA","1371476","717","New experiment","NA","0","0","0","yes","1024"
"undefined","undefined","undefined","undefined","black","no","legacy","0","uniform","undefined","undefined","undefined","44","44","89","44","44","NA","44","44","0","0","0","44","44","0","44","0","NA","44","0","Thu 30 May 2019 10:46:36 AM PDT","500","1000","The main experiment item","yes","NA","ABX_v3.osexp","/home/ubuntu/Desktop/panara","yes","no","mono","no","18","no","white","no","yes","768","44","44","/home/ubuntu/Desktop/panara/subject-701.csv","Jazzy James","3.1.3","1.1.3.wav","1.1.1.wav","1.1.1.wav","0","0","NA","0","NA","565","NA","565","NA","1114755","space","2","1024","2","48000","-16","experiment","1.1.1.wav","1.1.3.wav","1.1.1.wav","701","odd","1377308","1379880","1379379","1378599","NA","NA","1376308","1380662","715","NA","NA","1376305","1381228","NA","1376305","1115473","NA","1376308","717","New experiment","NA","0","0","0","yes","1024"
"undefined","undefined","undefined","undefined","black","no","legacy","0","uniform","undefined","undefined","undefined","45","45","91","45","45","NA","45","45","0","0","0","45","45","0","45","0","NA","45","0","Thu 30 May 2019 10:46:36 AM PDT","500","1000","The main experiment item","yes","NA","ABX_v3.osexp","/home/ubuntu/Desktop/panara","no","no","mono","no","18","no","white","no","yes","768","45","45","/home/ubuntu/Desktop/panara/subject-701.csv","Jazzy James","3.1.3","2.2.3.wav","2.2.3.wav","2.2.5.wav","0","1","NA","1","NA","1352","NA","1352","NA","1114755","space","2","1024","2","48000","-16","experiment","2.2.3.wav","2.2.5.wav","2.2.3.wav","701","odd","1382412","1384893","1384393","1383645","NA","NA","1381412","1385611","715","NA","NA","1381410","1386964","NA","1381409","1115473","NA","1381412","717","New experiment","NA","0","0","0","yes","1024"
"undefined","undefined","undefined","undefined","black","no","legacy","0","uniform","undefined","undefined","undefined","46","46","93","46","46","NA","46","46","0","0","0","46","46","0","46","0","NA","46","0","Thu 30 May 2019 10:46:36 AM PDT","500","1000","The main experiment item","yes","NA","ABX_v3.osexp","/home/ubuntu/Desktop/panara","no","no","mono","no","18","no","white","no","yes","768","46","46","/home/ubuntu/Desktop/panara/subject-701.csv","Jazzy James","3.1.3","1.2.2.wav","1.2.4.wav","1.2.4.wav","0","0","NA","0","NA","1386","NA","1386","NA","1114755","space","2","1024","2","48000","-16","experiment","1.2.2.wav","1.2.4.wav","1.2.4.wav","701","odd","1388147","1390672","1390172","1389436","NA","NA","1387147","1391425","715","NA","NA","1387144","1392812","NA","1387144","1115473","NA","1387147","717","New experiment","NA","0","0","0","yes","1024"
"undefined","undefined","undefined","undefined","black","no","legacy","0","uniform","undefined","undefined","undefined","47","47","95","47","47","NA","47","47","0","0","0","47","47","0","47","0","NA","47","0","Thu 30 May 2019 10:46:36 AM PDT","500","1000","The main experiment item","yes","NA","ABX_v3.osexp","/home/ubuntu/Desktop/panara","no","no","mono","no","18","no","white","no","yes","768","47","47","/home/ubuntu/Desktop/panara/subject-701.csv","Jazzy James","3.1.3","3.2.1.wav","3.2.3.wav","3.2.3.wav","0","1","NA","1","NA","1846","NA","1846","NA","1114755","space","2","1024","2","48000","-16","experiment","3.2.1.wav","3.2.3.wav","3.2.3.wav","701","odd","1393978","1396467","1395967","1395217","NA","NA","1392978","1397220","715","NA","NA","1392975","1399066","NA","1392975","1115473","NA","1392978","717","New experiment","NA","0","0","0","yes","1024"
"undefined","undefined","undefined","undefined","black","no","legacy","0","uniform","undefined","undefined","undefined","48","48","97","48","48","NA","48","48","0","0","0","48","48","0","48","0","NA","48","0","Thu 30 May 2019 10:46:36 AM PDT","500","1000","The main experiment item","yes","NA","ABX_v3.osexp","/home/ubuntu/Desktop/panara","yes","no","mono","no","18","no","white","no","yes","768","48","48","/home/ubuntu/Desktop/panara/subject-701.csv","Jazzy James","3.1.3","3.1.5.wav","3.1.3.wav","3.1.3.wav","0","0","NA","0","NA","844","NA","844","NA","1114755","space","2","1024","2","48000","-16","experiment","3.1.3.wav","3.1.5.wav","3.1.3.wav","701","odd","1400251","1402773","1402273","1401526","NA","NA","1399250","1403526","715","NA","NA","1399248","1404371","NA","1399247","1115473","NA","1399251","717","New experiment","NA","0","0","0","yes","1024"
"undefined","undefined","undefined","undefined","black","no","legacy","0","uniform","undefined","undefined","undefined","49","49","99","49","49","NA","49","49","0","0","0","49","49","0","49","0","NA","49","0","Thu 30 May 2019 10:46:36 AM PDT","500","1000","The main experiment item","yes","NA","ABX_v3.osexp","/home/ubuntu/Desktop/panara","no","no","mono","no","18","no","white","no","yes","768","49","49","/home/ubuntu/Desktop/panara/subject-701.csv","Jazzy James","3.1.3","4.1.1.wav","4.1.3.wav","4.1.3.wav","0","0","NA","0","NA","1165","NA","1165","NA","1114755","space","2","1024","2","48000","-16","experiment","4.1.1.wav","4.1.3.wav","4.1.3.wav","701","odd","1405533","1407996","1407496","1406771","NA","NA","1404533","1408709","715","NA","NA","1404531","1409875","NA","1404531","1115473","NA","1404533","717","New experiment","NA","0","0","0","yes","1024"
"undefined","undefined","undefined","undefined","black","no","legacy","0","uniform","undefined","undefined","undefined","50","50","101","50","50","NA","50","50","0","0","0","50","50","0","50","0","NA","50","0","Thu 30 May 2019 10:46:36 AM PDT","500","1000","The main experiment item","yes","NA","ABX_v3.osexp","/home/ubuntu/Desktop/panara","yes","no","mono","no","18","no","white","no","yes","768","50","50","/home/ubuntu/Desktop/panara/subject-701.csv","Jazzy James","3.1.3","2.1.3.wav","2.1.3.wav","2.1.1.wav","0","1","space","1","NA","1062","21501","1062","NA","1114755","space","2","1024","2","48000","-16","experiment","2.1.1.wav","2.1.3.wav","2.1.3.wav","701","odd","1432549","1435065","1434565","1433822","1410044","NA","1431548","1435811","715","NA","NA","1410042","1436874","NA","1410042","1115473","NA","1431548","717","New experiment","NA","0","0","0","yes","1024"
"undefined","undefined","undefined","undefined","black","no","legacy","0","uniform","undefined","undefined","undefined","51","51","103","51","51","NA","51","51","0","0","0","51","51","0","51","0","NA","51","0","Thu 30 May 2019 10:46:36 AM PDT","500","1000","The main experiment item","yes","NA","ABX_v3.osexp","/home/ubuntu/Desktop/panara","no","no","mono","no","18","no","white","no","yes","768","51","51","/home/ubuntu/Desktop/panara/subject-701.csv","Jazzy James","3.1.3","2.2.1.wav","2.2.3.wav","2.2.3.wav","0","0","space","0","NA","1141","21501","1141","NA","1114755","space","2","1024","2","48000","-16","experiment","2.2.1.wav","2.2.3.wav","2.2.3.wav","701","odd","1438075","1440519","1440019","1439304","1410044","NA","1437075","1441244","715","NA","NA","1437072","1442385","NA","1437072","1115473","NA","1437075","717","New experiment","NA","0","0","0","yes","1024"
"undefined","undefined","undefined","undefined","black","no","legacy","0","uniform","undefined","undefined","undefined","52","52","105","52","52","NA","52","52","0","0","0","52","52","0","52","0","NA","52","0","Thu 30 May 2019 10:46:36 AM PDT","500","1000","The main experiment item","yes","NA","ABX_v3.osexp","/home/ubuntu/Desktop/panara","yes","no","mono","no","18","no","white","no","yes","768","52","52","/home/ubuntu/Desktop/panara/subject-701.csv","Jazzy James","3.1.3","4.2.3.wav","4.2.1.wav","4.2.1.wav","0","1","space","1","NA","1102","21501","1102","NA","1114755","space","2","1024","2","48000","-16","experiment","4.2.1.wav","4.2.3.wav","4.2.1.wav","701","odd","1443534","1446009","1445509","1444788","1410044","NA","1442534","1446763","715","NA","NA","1442531","1447865","NA","1442531","1115473","NA","1442534","717","New experiment","NA","0","0","0","yes","1024"
"undefined","undefined","undefined","undefined","black","no","legacy","0","uniform","undefined","undefined","undefined","53","53","107","53","53","NA","53","53","0","0","0","53","53","0","53","0","NA","53","0","Thu 30 May 2019 10:46:36 AM PDT","500","1000","The main experiment item","yes","NA","ABX_v3.osexp","/home/ubuntu/Desktop/panara","no","no","mono","no","18","no","white","no","yes","768","53","53","/home/ubuntu/Desktop/panara/subject-701.csv","Jazzy James","3.1.3","2.1.3.wav","2.1.3.wav","2.1.5.wav","0","1","space","1","NA","1159","21501","1159","NA","1114755","space","2","1024","2","48000","-16","experiment","2.1.3.wav","2.1.5.wav","2.1.3.wav","701","odd","1449026","1451526","1451026","1450275","1410044","NA","1448026","1452281","715","NA","NA","1448024","1453441","NA","1448024","1115473","NA","1448026","717","New experiment","NA","0","0","0","yes","1024"
"undefined","undefined","undefined","undefined","black","no","legacy","0","uniform","undefined","undefined","undefined","54","54","109","54","54","NA","54","54","0","0","0","54","54","0","54","0","NA","54","0","Thu 30 May 2019 10:46:36 AM PDT","500","1000","The main experiment item","yes","NA","ABX_v3.osexp","/home/ubuntu/Desktop/panara","yes","no","mono","no","18","no","white","no","yes","768","0","53","/home/ubuntu/Desktop/panara/subject-701.csv","Jazzy James","3.1.3","1.2.4.wav","1.1.4.wav","1.1.2.wav","0","0","space","0","NA","1944","21501","1944","NA","1114755","space","2","1024","2","48000","-16","experiment","1.1.2.wav","1.2.4.wav","1.1.4.wav","701","odd","1454643","1457159","1456659","1455902","1410044","NA","1453643","1457960","715","NA","NA","1453640","1459905","1453571","1453640","1115473","NA","1453643","717","New experiment","NA","0","0","0","yes","1024"
"undefined","undefined","undefined","undefined","black","no","legacy","0","uniform","undefined","undefined","undefined","55","55","111","55","55","NA","55","55","0","0","0","55","55","0","55","0","NA","55","0","Thu 30 May 2019 10:46:36 AM PDT","500","1000","The main experiment item","yes","NA","ABX_v3.osexp","/home/ubuntu/Desktop/panara","yes","no","mono","no","18","no","white","no","yes","768","1","53","/home/ubuntu/Desktop/panara/subject-701.csv","Jazzy James","3.1.3","3.1.3.wav","1.1.3.wav","1.1.1.wav","0","0","space","0","NA","1361","21501","1361","NA","1114755","space","2","1024","2","48000","-16","experiment","1.1.1.wav","3.1.3.wav","1.1.3.wav","701","odd","1461079","1463637","1463137","1462328","1410044","NA","1460079","1464439","715","NA","NA","1460077","1465800","1453571","1460077","1115473","NA","1460079","717","New experiment","NA","0","0","0","yes","1024"
"undefined","undefined","undefined","undefined","black","no","legacy","0","uniform","undefined","undefined","undefined","56","56","113","56","56","NA","56","56","0","0","0","56","56","0","56","0","NA","56","0","Thu 30 May 2019 10:46:36 AM PDT","500","1000","The main experiment item","yes","NA","ABX_v3.osexp","/home/ubuntu/Desktop/panara","no","no","mono","no","18","no","white","no","yes","768","2","53","/home/ubuntu/Desktop/panara/subject-701.csv","Jazzy James","3.1.3","4.2.1.wav","4.2.3.wav","3.2.3.wav","0","1","space","1","NA","1930","21501","1930","NA","1114755","space","2","1024","2","48000","-16","experiment","4.2.1.wav","3.2.3.wav","4.2.3.wav","701","odd","1466975","1469462","1468962","1468209","1410044","NA","1465975","1470229","715","NA","NA","1465972","1472159","1453571","1465972","1115473","NA","1465975","717","New experiment","NA","0","0","0","yes","1024"
"undefined","undefined","undefined","undefined","black","no","legacy","0","uniform","undefined","undefined","undefined","57","57","115","57","57","NA","57","57","0","0","0","57","57","0","57","0","NA","57","0","Thu 30 May 2019 10:46:36 AM PDT","500","1000","The main experiment item","yes","NA","ABX_v3.osexp","/home/ubuntu/Desktop/panara","no","no","mono","no","18","no","white","no","yes","768","3","53","/home/ubuntu/Desktop/panara/subject-701.csv","Jazzy James","3.1.3","4.2.2.wav","4.1.2.wav","4.1.4.wav","0","0","space","0","NA","1087","21501","1087","NA","1114755","space","2","1024","2","48000","-16","experiment","4.2.2.wav","4.1.4.wav","4.1.2.wav","701","odd","1473337","1475803","1475303","1474550","1410044","NA","1472336","1476528","715","NA","NA","1472334","1477616","1453571","1472334","1115473","NA","1472336","717","New experiment","NA","0","0","0","yes","1024"
"undefined","undefined","undefined","undefined","black","no","legacy","0","uniform","undefined","undefined","undefined","58","58","117","58","58","NA","58","58","0","0","0","58","58","0","58","0","NA","58","0","Thu 30 May 2019 10:46:36 AM PDT","500","1000","The main experiment item","yes","NA","ABX_v3.osexp","/home/ubuntu/Desktop/panara","no","no","mono","no","18","no","white","no","yes","768","4","53","/home/ubuntu/Desktop/panara/subject-701.csv","Jazzy James","3.1.3","1.2.3.wav","1.2.5.wav","1.1.5.wav","0","0","space","0","NA","915","21501","915","NA","1114755","space","2","1024","2","48000","-16","experiment","1.2.3.wav","1.1.5.wav","1.2.5.wav","701","odd","1478782","1481343","1480843","1480064","1410044","NA","1477781","1482123","715","NA","NA","1477779","1483039","1453571","1477779","1115473","NA","1477782","717","New experiment","NA","0","0","0","yes","1024"
"undefined","undefined","undefined","undefined","black","no","legacy","0","uniform","undefined","undefined","undefined","59","59","119","59","59","NA","59","59","0","0","0","59","59","0","59","0","NA","59","0","Thu 30 May 2019 10:46:36 AM PDT","500","1000","The main experiment item","yes","NA","ABX_v3.osexp","/home/ubuntu/Desktop/panara","yes","no","mono","no","18","no","white","no","yes","768","5","53","/home/ubuntu/Desktop/panara/subject-701.csv","Jazzy James","3.1.3","2.1.5.wav","4.1.5.wav","4.1.3.wav","0","0","space","0","NA","986","21501","986","NA","1114755","space","2","1024","2","48000","-16","experiment","4.1.3.wav","2.1.5.wav","4.1.5.wav","701","odd","1484192","1486661","1486161","1485439","1410044","NA","1483192","1487381","715","NA","NA","1483189","1488367","1453571","1483189","1115473","NA","1483192","717","New experiment","NA","0","0","0","yes","1024"
"undefined","undefined","undefined","undefined","black","no","legacy","0","uniform","undefined","undefined","undefined","60","60","121","60","60","NA","60","60","0","0","0","60","60","0","60","0","NA","60","0","Thu 30 May 2019 10:46:36 AM PDT","500","1000","The main experiment item","yes","NA","ABX_v3.osexp","/home/ubuntu/Desktop/panara","no","no","mono","no","18","no","white","no","yes","768","6","53","/home/ubuntu/Desktop/panara/subject-701.csv","Jazzy James","3.1.3","3.1.2.wav","3.2.2.wav","3.2.4.wav","0","0","space","0","NA","1128","21501","1128","NA","1114755","space","2","1024","2","48000","-16","experiment","3.1.2.wav","3.2.4.wav","3.2.2.wav","701","odd","1489549","1492095","1491595","1490822","1410044","NA","1488548","1492847","715","NA","NA","1488545","1493975","1453571","1488545","1115473","NA","1488549","717","New experiment","NA","0","0","0","yes","1024"
"undefined","undefined","undefined","undefined","black","no","legacy","0","uniform","undefined","undefined","undefined","61","61","123","61","61","NA","61","61","0","0","0","61","61","0","61","0","NA","61","0","Thu 30 May 2019 10:46:36 AM PDT","500","1000","The main experiment item","yes","NA","ABX_v3.osexp","/home/ubuntu/Desktop/panara","yes","no","mono","no","18","no","white","no","yes","768","7","53","/home/ubuntu/Desktop/panara/subject-701.csv","Jazzy James","3.1.3","2.1.5.wav","2.1.3.wav","2.2.3.wav","0","1","space","1","NA","2152","21501","2152","NA","1114755","space","2","1024","2","48000","-16","experiment","2.2.3.wav","2.1.5.wav","2.1.3.wav","701","odd","1495159","1497674","1497174","1496424","1410044","NA","1494159","1498430","715","NA","NA","1494157","1500583","1453571","1494156","1115473","NA","1494159","717","New experiment","NA","0","0","0","yes","1024"
"undefined","undefined","undefined","undefined","black","no","legacy","0","uniform","undefined","undefined","undefined","62","62","125","62","62","NA","62","62","0","0","0","62","62","0","62","0","NA","62","0","Thu 30 May 2019 10:46:36 AM PDT","500","1000","The main experiment item","yes","NA","ABX_v3.osexp","/home/ubuntu/Desktop/panara","no","no","mono","no","18","no","white","no","yes","768","8","53","/home/ubuntu/Desktop/panara/subject-701.csv","Jazzy James","3.1.3","3.1.3.wav","3.1.5.wav","3.2.5.wav","0","0","space","0","NA","1392","21501","1392","NA","1114755","space","2","1024","2","48000","-16","experiment","3.1.3.wav","3.2.5.wav","3.1.5.wav","701","odd","1501772","1504304","1503804","1503026","1410044","NA","1500772","1505086","715","NA","NA","1500770","1506479","1453571","1500769","1115473","NA","1500772","717","New experiment","NA","0","0","0","yes","1024"
"undefined","undefined","undefined","undefined","black","no","legacy","0","uniform","undefined","undefined","undefined","63","63","127","63","63","NA","63","63","0","0","0","63","63","0","63","0","NA","63","0","Thu 30 May 2019 10:46:36 AM PDT","500","1000","The main experiment item","yes","NA","ABX_v3.osexp","/home/ubuntu/Desktop/panara","no","no","mono","no","18","no","white","no","yes","768","9","53","/home/ubuntu/Desktop/panara/subject-701.csv","Jazzy James","3.1.3","1.2.1.wav","1.2.3.wav","1.1.3.wav","0","0","space","0","NA","1066","21501","1066","NA","1114755","space","2","1024","2","48000","-16","experiment","1.2.1.wav","1.1.3.wav","1.2.3.wav","701","odd","1507649","1510213","1509713","1508934","1410044","NA","1506649","1510995","715","NA","NA","1506646","1512061","1453571","1506646","1115473","NA","1506649","717","New experiment","NA","0","0","0","yes","1024"
"undefined","undefined","undefined","undefined","black","no","legacy","0","uniform","undefined","undefined","undefined","64","64","129","64","64","NA","64","64","0","0","0","64","64","0","64","0","NA","64","0","Thu 30 May 2019 10:46:36 AM PDT","500","1000","The main experiment item","yes","NA","ABX_v3.osexp","/home/ubuntu/Desktop/panara","yes","no","mono","no","18","no","white","no","yes","768","10","53","/home/ubuntu/Desktop/panara/subject-701.csv","Jazzy James","3.1.3","3.2.3.wav","3.2.1.wav","1.2.1.wav","0","1","space","1","NA","922","21501","922","NA","1114755","space","2","1024","2","48000","-16","experiment","1.2.1.wav","3.2.3.wav","3.2.1.wav","701","odd","1513223","1515709","1515209","1514464","1410044","NA","1512222","1516484","715","NA","NA","1512219","1517406","1453571","1512219","1115473","NA","1512223","717","New experiment","NA","0","0","0","yes","1024"
"undefined","undefined","undefined","undefined","black","no","legacy","0","uniform","undefined","undefined","undefined","65","65","131","65","65","NA","65","65","0","0","0","65","65","0","65","0","NA","65","0","Thu 30 May 2019 10:46:36 AM PDT","500","1000","The main experiment item","yes","NA","ABX_v3.osexp","/home/ubuntu/Desktop/panara","yes","no","mono","no","18","no","white","no","yes","768","11","53","/home/ubuntu/Desktop/panara/subject-701.csv","Jazzy James","3.1.3","4.1.4.wav","4.1.2.wav","3.1.2.wav","0","0","space","0","NA","1380","21501","1380","NA","1114755","space","2","1024","2","48000","-16","experiment","3.1.2.wav","4.1.4.wav","4.1.2.wav","701","odd","1518594","1521072","1520572","1519819","1410044","NA","1517594","1521881","715","NA","NA","1517592","1523262","1453571","1517592","1115473","NA","1517594","717","New experiment","NA","0","0","0","yes","1024"
"undefined","undefined","undefined","undefined","black","no","legacy","0","uniform","undefined","undefined","undefined","66","66","133","66","66","NA","66","66","0","0","0","66","66","0","66","0","NA","66","0","Thu 30 May 2019 10:46:36 AM PDT","500","1000","The main experiment item","yes","NA","ABX_v3.osexp","/home/ubuntu/Desktop/panara","no","no","mono","no","18","no","white","no","yes","768","12","53","/home/ubuntu/Desktop/panara/subject-701.csv","Jazzy James","3.1.3","1.1.2.wav","1.1.4.wav","2.1.4.wav","0","0","space","0","NA","715","21501","715","NA","1114755","space","2","1024","2","48000","-16","experiment","1.1.2.wav","2.1.4.wav","1.1.4.wav","701","odd","1524423","1527003","1526503","1525721","1410044","NA","1523423","1527754","715","NA","NA","1523421","1528470","1453571","1523421","1115473","NA","1523423","717","New experiment","NA","0","0","0","yes","1024"
"undefined","undefined","undefined","undefined","black","no","legacy","0","uniform","undefined","undefined","undefined","67","67","135","67","67","NA","67","67","0","0","0","67","67","0","67","0","NA","67","0","Thu 30 May 2019 10:46:36 AM PDT","500","1000","The main experiment item","yes","NA","ABX_v3.osexp","/home/ubuntu/Desktop/panara","no","no","mono","no","18","no","white","no","yes","768","13","53","/home/ubuntu/Desktop/panara/subject-701.csv","Jazzy James","3.1.3","4.1.3.wav","4.1.5.wav","3.1.5.wav","0","1","space","1","NA","1606","21501","1606","NA","1114755","space","2","1024","2","48000","-16","experiment","4.1.3.wav","3.1.5.wav","4.1.5.wav","701","odd","1529652","1532121","1531621","1530869","1410044","NA","1528652","1532903","715","NA","NA","1528650","1534509","1453571","1528650","1115473","NA","1528652","717","New experiment","NA","0","0","0","yes","1024"
"undefined","undefined","undefined","undefined","black","no","legacy","0","uniform","undefined","undefined","undefined","68","68","137","68","68","NA","68","68","0","0","0","68","68","0","68","0","NA","68","0","Thu 30 May 2019 10:46:36 AM PDT","500","1000","The main experiment item","yes","NA","ABX_v3.osexp","/home/ubuntu/Desktop/panara","yes","no","mono","no","18","no","white","no","yes","768","14","53","/home/ubuntu/Desktop/panara/subject-701.csv","Jazzy James","3.1.3","3.1.4.wav","1.1.4.wav","1.1.2.wav","0","0","space","0","NA","256","21501","256","NA","1114755","space","2","1024","2","48000","-16","experiment","1.1.2.wav","3.1.4.wav","1.1.4.wav","701","odd","1535687","1538249","1537749","1536979","1410044","NA","1534687","1539061","715","NA","NA","1534684","1539317","1453571","1534684","1115473","NA","1534687","717","New experiment","NA","0","0","0","yes","1024"
"undefined","undefined","undefined","undefined","black","no","legacy","0","uniform","undefined","undefined","undefined","69","69","139","69","69","NA","69","69","0","0","0","69","69","0","69","0","NA","69","0","Thu 30 May 2019 10:46:36 AM PDT","500","1000","The main experiment item","yes","NA","ABX_v3.osexp","/home/ubuntu/Desktop/panara","no","no","mono","no","18","no","white","no","yes","768","15","53","/home/ubuntu/Desktop/panara/subject-701.csv","Jazzy James","3.1.3","1.1.3.wav","1.1.5.wav","1.2.5.wav","0","0","space","0","NA","1053","21501","1053","NA","1114755","space","2","1024","2","48000","-16","experiment","1.1.3.wav","1.2.5.wav","1.1.5.wav","701","odd","1540482","1543057","1542557","1541785","1410044","NA","1539482","1543839","715","NA","NA","1539479","1544893","1453571","1539479","1115473","NA","1539482","717","New experiment","NA","0","0","0","yes","1024"
"undefined","undefined","undefined","undefined","black","no","legacy","0","uniform","undefined","undefined","undefined","70","70","141","70","70","NA","70","70","0","0","0","70","70","0","70","0","NA","70","0","Thu 30 May 2019 10:46:36 AM PDT","500","1000","The main experiment item","yes","NA","ABX_v3.osexp","/home/ubuntu/Desktop/panara","no","no","mono","no","18","no","white","no","yes","768","16","53","/home/ubuntu/Desktop/panara/subject-701.csv","Jazzy James","3.1.3","4.2.3.wav","4.2.5.wav","2.2.5.wav","0","1","space","1","NA","1692","21501","1692","NA","1114755","space","2","1024","2","48000","-16","experiment","4.2.3.wav","2.2.5.wav","4.2.5.wav","701","odd","1546062","1548547","1548047","1547324","1410044","NA","1545062","1549272","715","NA","NA","1545060","1550965","1453571","1545060","1115473","NA","1545062","717","New experiment","NA","0","0","0","yes","1024"
"undefined","undefined","undefined","undefined","black","no","legacy","0","uniform","undefined","undefined","undefined","71","71","143","71","71","NA","71","71","0","0","0","71","71","0","71","0","NA","71","0","Thu 30 May 2019 10:46:36 AM PDT","500","1000","The main experiment item","yes","NA","ABX_v3.osexp","/home/ubuntu/Desktop/panara","yes","no","mono","no","18","no","white","no","yes","768","17","53","/home/ubuntu/Desktop/panara/subject-701.csv","Jazzy James","3.1.3","4.1.4.wav","3.1.4.wav","3.1.2.wav","0","0","space","0","NA","1347","21501","1347","NA","1114755","space","2","1024","2","48000","-16","experiment","3.1.2.wav","4.1.4.wav","3.1.4.wav","701","odd","1552117","1554632","1554132","1553353","1410044","NA","1551117","1555425","715","NA","NA","1551114","1556772","1453571","1551114","1115473","NA","1551117","717","New experiment","NA","0","0","0","yes","1024"
"undefined","undefined","undefined","undefined","black","no","legacy","0","uniform","undefined","undefined","undefined","72","72","145","72","72","NA","72","72","0","0","0","72","72","0","72","0","NA","72","0","Thu 30 May 2019 10:46:36 AM PDT","500","1000","The main experiment item","yes","NA","ABX_v3.osexp","/home/ubuntu/Desktop/panara","yes","no","mono","no","18","no","white","no","yes","768","18","53","/home/ubuntu/Desktop/panara/subject-701.csv","Jazzy James","3.1.3","2.1.3.wav","2.1.1.wav","4.1.1.wav","0","1","space","1","NA","2209","21501","2209","NA","1114755","space","2","1024","2","48000","-16","experiment","4.1.1.wav","2.1.3.wav","2.1.1.wav","701","odd","1557936","1560457","1559957","1559204","1410044","NA","1556935","1561211","715","NA","NA","1556933","1563420","1453571","1556933","1115473","NA","1556936","717","New experiment","NA","0","0","0","yes","1024"
"undefined","undefined","undefined","undefined","black","no","legacy","0","uniform","undefined","undefined","undefined","73","73","147","73","73","NA","73","73","0","0","0","73","73","0","73","0","NA","73","0","Thu 30 May 2019 10:46:36 AM PDT","500","1000","The main experiment item","yes","NA","ABX_v3.osexp","/home/ubuntu/Desktop/panara","no","no","mono","no","18","no","white","no","yes","768","19","53","/home/ubuntu/Desktop/panara/subject-701.csv","Jazzy James","3.1.3","2.1.3.wav","2.1.5.wav","1.1.5.wav","0","1","space","1","NA","1447","21501","1447","NA","1114755","space","2","1024","2","48000","-16","experiment","2.1.3.wav","1.1.5.wav","2.1.5.wav","701","odd","1564585","1567077","1566577","1565827","1410044","NA","1563584","1567860","715","NA","NA","1563582","1569308","1453571","1563582","1115473","NA","1563585","717","New experiment","NA","0","0","0","yes","1024"
"undefined","undefined","undefined","undefined","black","no","legacy","0","uniform","undefined","undefined","undefined","74","74","149","74","74","NA","74","74","0","0","0","74","74","0","74","0","NA","74","0","Thu 30 May 2019 10:46:36 AM PDT","500","1000","The main experiment item","yes","NA","ABX_v3.osexp","/home/ubuntu/Desktop/panara","yes","no","mono","no","18","no","white","no","yes","768","20","53","/home/ubuntu/Desktop/panara/subject-701.csv","Jazzy James","3.1.3","4.2.5.wav","4.2.3.wav","2.2.3.wav","0","1","space","1","NA","984","21501","984","NA","1114755","space","2","1024","2","48000","-16","experiment","2.2.3.wav","4.2.5.wav","4.2.3.wav","701","odd","1570490","1572966","1572466","1571715","1410044","NA","1569490","1573707","715","NA","NA","1569488","1574692","1453571","1569488","1115473","NA","1569490","717","New experiment","NA","0","0","0","yes","1024"
"undefined","undefined","undefined","undefined","black","no","legacy","0","uniform","undefined","undefined","undefined","75","75","151","75","75","NA","75","75","0","0","0","75","75","0","75","0","NA","75","0","Thu 30 May 2019 10:46:36 AM PDT","500","1000","The main experiment item","yes","NA","ABX_v3.osexp","/home/ubuntu/Desktop/panara","no","no","mono","no","18","no","white","no","yes","768","21","53","/home/ubuntu/Desktop/panara/subject-701.csv","Jazzy James","3.1.3","1.1.2.wav","2.1.2.wav","2.1.4.wav","0","1","space","1","NA","763","21501","763","NA","1114755","space","2","1024","2","48000","-16","experiment","1.1.2.wav","2.1.4.wav","2.1.2.wav","701","odd","1575873","1578455","1577955","1577189","1410044","NA","1574873","1579208","715","NA","NA","1574870","1579972","1453571","1574870","1115473","NA","1574873","717","New experiment","NA","0","0","0","yes","1024"
"undefined","undefined","undefined","undefined","black","no","legacy","0","uniform","undefined","undefined","undefined","76","76","153","76","76","NA","76","76","0","0","0","76","76","0","76","0","NA","76","0","Thu 30 May 2019 10:46:36 AM PDT","500","1000","The main experiment item","yes","NA","ABX_v3.osexp","/home/ubuntu/Desktop/panara","yes","no","mono","no","18","no","white","no","yes","768","22","53","/home/ubuntu/Desktop/panara/subject-701.csv","Jazzy James","3.1.3","3.1.3.wav","3.1.1.wav","3.2.1.wav","0","0","space","0","NA","1539","21501","1539","NA","1114755","space","2","1024","2","48000","-16","experiment","3.2.1.wav","3.1.3.wav","3.1.1.wav","701","odd","1581134","1583638","1583138","1582387","1410044","NA","1580133","1584392","715","NA","NA","1580131","1585931","1453571","1580131","1115473","NA","1580134","717","New experiment","NA","0","0","0","yes","1024"
"undefined","undefined","undefined","undefined","black","no","legacy","0","uniform","undefined","undefined","undefined","77","77","155","77","77","NA","77","77","0","0","0","77","77","0","77","0","NA","77","0","Thu 30 May 2019 10:46:36 AM PDT","500","1000","The main experiment item","yes","NA","ABX_v3.osexp","/home/ubuntu/Desktop/panara","no","no","mono","no","18","no","white","no","yes","768","23","53","/home/ubuntu/Desktop/panara/subject-701.csv","Jazzy James","3.1.3","1.1.1.wav","3.1.1.wav","3.1.3.wav","0","0","space","0","NA","572","21501","572","NA","1114755","space","2","1024","2","48000","-16","experiment","1.1.1.wav","3.1.3.wav","3.1.1.wav","701","odd","1587111","1589667","1589167","1588417","1410044","NA","1586110","1590422","715","NA","NA","1586108","1590995","1453571","1586108","1115473","NA","1586111","717","New experiment","NA","0","0","0","yes","1024"
"undefined","undefined","undefined","undefined","black","no","legacy","0","uniform","undefined","undefined","undefined","78","78","157","78","78","NA","78","78","0","0","0","78","78","0","78","0","NA","78","0","Thu 30 May 2019 10:46:36 AM PDT","500","1000","The main experiment item","yes","NA","ABX_v3.osexp","/home/ubuntu/Desktop/panara","yes","no","mono","no","18","no","white","no","yes","768","24","53","/home/ubuntu/Desktop/panara/subject-701.csv","Jazzy James","3.1.3","3.1.4.wav","4.1.4.wav","4.1.2.wav","0","1","space","1","NA","821","21501","821","NA","1114755","space","2","1024","2","48000","-16","experiment","4.1.2.wav","3.1.4.wav","4.1.4.wav","701","odd","1592175","1594689","1594189","1593446","1410044","NA","1591175","1595413","715","NA","NA","1591172","1596235","1453571","1591172","1115473","NA","1591175","717","New experiment","NA","0","0","0","yes","1024"
"undefined","undefined","undefined","undefined","black","no","legacy","0","uniform","undefined","undefined","undefined","79","79","159","79","79","NA","79","79","0","0","0","79","79","0","79","0","NA","79","0","Thu 30 May 2019 10:46:36 AM PDT","500","1000","The main experiment item","yes","NA","ABX_v3.osexp","/home/ubuntu/Desktop/panara","no","no","mono","no","18","no","white","no","yes","768","25","53","/home/ubuntu/Desktop/panara/subject-701.csv","Jazzy James","3.1.3","4.1.1.wav","4.1.3.wav","4.2.3.wav","0","1","space","1","NA","1050","21501","1050","NA","1114755","space","2","1024","2","48000","-16","experiment","4.1.1.wav","4.2.3.wav","4.1.3.wav","701","odd","1597404","1599895","1599395","1598641","1410044","NA","1596403","1600648","715","NA","NA","1596401","1601699","1453571","1596401","1115473","NA","1596403","717","New experiment","NA","0","0","0","yes","1024"
"undefined","undefined","undefined","undefined","black","no","legacy","0","uniform","undefined","undefined","undefined","80","80","161","80","80","NA","80","80","0","0","0","80","80","0","80","0","NA","80","0","Thu 30 May 2019 10:46:36 AM PDT","500","1000","The main experiment item","yes","NA","ABX_v3.osexp","/home/ubuntu/Desktop/panara","yes","no","mono","no","18","no","white","no","yes","768","26","53","/home/ubuntu/Desktop/panara/subject-701.csv","Jazzy James","3.1.3","2.1.3.wav","2.2.3.wav","2.2.1.wav","0","1","space","1","NA","934","21501","934","NA","1114755","space","2","1024","2","48000","-16","experiment","2.2.1.wav","2.1.3.wav","2.2.3.wav","701","odd","1602872","1605355","1604855","1604119","1410044","NA","1601872","1606075","715","NA","NA","1601869","1607009","1453571","1601869","1115473","NA","1601872","717","New experiment","NA","0","0","0","yes","1024"
"undefined","undefined","undefined","undefined","black","no","legacy","0","uniform","undefined","undefined","undefined","81","81","163","81","81","NA","81","81","0","0","0","81","81","0","81","0","NA","81","0","Thu 30 May 2019 10:46:36 AM PDT","500","1000","The main experiment item","yes","NA","ABX_v3.osexp","/home/ubuntu/Desktop/panara","no","no","mono","no","18","no","white","no","yes","768","27","53","/home/ubuntu/Desktop/panara/subject-701.csv","Jazzy James","3.1.3","4.1.1.wav","4.1.3.wav","2.1.3.wav","0","1","space","1","NA","968","21501","968","NA","1114755","space","2","1024","2","48000","-16","experiment","4.1.1.wav","2.1.3.wav","4.1.3.wav","701","odd","1608177","1610630","1610130","1609415","1410044","NA","1607177","1611386","715","NA","NA","1607174","1612354","1453571","1607174","1115473","NA","1607177","717","New experiment","NA","0","0","0","yes","1024"
"undefined","undefined","undefined","undefined","black","no","legacy","0","uniform","undefined","undefined","undefined","82","82","165","82","82","NA","82","82","0","0","0","82","82","0","82","0","NA","82","0","Thu 30 May 2019 10:46:36 AM PDT","500","1000","The main experiment item","yes","NA","ABX_v3.osexp","/home/ubuntu/Desktop/panara","yes","no","mono","no","18","no","white","no","yes","768","28","53","/home/ubuntu/Desktop/panara/subject-701.csv","Jazzy James","3.1.3","1.2.3.wav","3.2.3.wav","3.2.1.wav","0","0","space","0","NA","285","21501","285","NA","1114755","space","2","1024","2","48000","-16","experiment","3.2.1.wav","1.2.3.wav","3.2.3.wav","701","odd","1613539","1616057","1615557","1614805","1410044","NA","1612539","1616811","715","NA","NA","1612537","1617097","1453571","1612537","1115473","NA","1612539","717","New experiment","NA","0","0","0","yes","1024"
"undefined","undefined","undefined","undefined","black","no","legacy","0","uniform","undefined","undefined","undefined","83","83","167","83","83","NA","83","83","0","0","0","83","83","0","83","0","NA","83","0","Thu 30 May 2019 10:46:36 AM PDT","500","1000","The main experiment item","yes","NA","ABX_v3.osexp","/home/ubuntu/Desktop/panara","no","no","mono","no","18","no","white","no","yes","768","29","53","/home/ubuntu/Desktop/panara/subject-701.csv","Jazzy James","3.1.3","1.2.1.wav","1.2.3.wav","2.2.3.wav","0","0","space","0","NA","547","21501","547","NA","1114755","space","2","1024","2","48000","-16","experiment","1.2.1.wav","2.2.3.wav","1.2.3.wav","701","odd","1618285","1620836","1620335","1619553","1410044","NA","1617285","1621573","715","NA","NA","1617282","1622121","1453571","1617282","1115473","NA","1617285","717","New experiment","NA","0","0","0","yes","1024"
"undefined","undefined","undefined","undefined","black","no","legacy","0","uniform","undefined","undefined","undefined","84","84","169","84","84","NA","84","84","0","0","0","84","84","0","84","0","NA","84","0","Thu 30 May 2019 10:46:36 AM PDT","500","1000","The main experiment item","yes","NA","ABX_v3.osexp","/home/ubuntu/Desktop/panara","yes","no","mono","no","18","no","white","no","yes","768","30","53","/home/ubuntu/Desktop/panara/subject-701.csv","Jazzy James","3.1.3","1.2.3.wav","2.2.3.wav","2.2.1.wav","0","1","space","1","NA","1245","21501","1245","NA","1114755","space","2","1024","2","48000","-16","experiment","2.2.1.wav","1.2.3.wav","2.2.3.wav","701","odd","1623281","1625798","1625298","1624576","1410044","NA","1622281","1626516","715","NA","NA","1622278","1627762","1453571","1622278","1115473","NA","1622281","717","New experiment","NA","0","0","0","yes","1024"
"undefined","undefined","undefined","undefined","black","no","legacy","0","uniform","undefined","undefined","undefined","85","85","171","85","85","NA","85","85","0","0","0","85","85","0","85","0","NA","85","0","Thu 30 May 2019 10:46:36 AM PDT","500","1000","The main experiment item","yes","NA","ABX_v3.osexp","/home/ubuntu/Desktop/panara","yes","no","mono","no","18","no","white","no","yes","768","31","53","/home/ubuntu/Desktop/panara/subject-701.csv","Jazzy James","3.1.3","1.1.4.wav","1.1.2.wav","2.1.2.wav","0","1","space","1","NA","2179","21501","2179","NA","1114755","space","2","1024","2","48000","-16","experiment","2.1.2.wav","1.1.4.wav","1.1.2.wav","701","odd","1628936","1631508","1631008","1630230","1410044","NA","1627936","1632262","715","NA","NA","1627933","1634441","1453571","1627933","1115473","NA","1627936","717","New experiment","NA","0","0","0","yes","1024"
"undefined","undefined","undefined","undefined","black","no","legacy","0","uniform","undefined","undefined","undefined","86","86","173","86","86","NA","86","86","0","0","0","86","86","0","86","0","NA","86","0","Thu 30 May 2019 10:46:36 AM PDT","500","1000","The main experiment item","yes","NA","ABX_v3.osexp","/home/ubuntu/Desktop/panara","yes","no","mono","no","18","no","white","no","yes","768","32","53","/home/ubuntu/Desktop/panara/subject-701.csv","Jazzy James","3.1.3","1.2.5.wav","1.2.3.wav","3.2.3.wav","0","1","space","1","NA","522","21501","522","NA","1114755","space","2","1024","2","48000","-16","experiment","3.2.3.wav","1.2.5.wav","1.2.3.wav","701","odd","1635614","1638158","1637658","1636885","1410044","NA","1634614","1638910","715","NA","NA","1634612","1639433","1453571","1634612","1115473","NA","1634614","717","New experiment","NA","0","0","0","yes","1024"
"undefined","undefined","undefined","undefined","black","no","legacy","0","uniform","undefined","undefined","undefined","87","87","175","87","87","NA","87","87","0","0","0","87","87","0","87","0","NA","87","0","Thu 30 May 2019 10:46:36 AM PDT","500","1000","The main experiment item","yes","NA","ABX_v3.osexp","/home/ubuntu/Desktop/panara","yes","no","mono","no","18","no","white","no","yes","768","33","53","/home/ubuntu/Desktop/panara/subject-701.csv","Jazzy James","3.1.3","1.1.4.wav","1.2.4.wav","1.2.2.wav","0","1","space","1","NA","738","21501","738","NA","1114755","space","2","1024","2","48000","-16","experiment","1.2.2.wav","1.1.4.wav","1.2.4.wav","701","odd","1640608","1643136","1642636","1641883","1410044","NA","1639608","1643918","715","NA","NA","1639605","1644657","1453571","1639605","1115473","NA","1639608","717","New experiment","NA","0","0","0","yes","1024"
"undefined","undefined","undefined","undefined","black","no","legacy","0","uniform","undefined","undefined","undefined","88","88","177","88","88","NA","88","88","0","0","0","88","88","0","88","0","NA","88","0","Thu 30 May 2019 10:46:36 AM PDT","500","1000","The main experiment item","yes","NA","ABX_v3.osexp","/home/ubuntu/Desktop/panara","no","no","mono","no","18","no","white","no","yes","768","34","53","/home/ubuntu/Desktop/panara/subject-701.csv","Jazzy James","3.1.3","1.2.2.wav","1.2.4.wav","3.2.4.wav","0","1","space","1","NA","494","21501","494","NA","1114755","space","2","1024","2","48000","-16","experiment","1.2.2.wav","3.2.4.wav","1.2.4.wav","701","odd","1645832","1648362","1647862","1647110","1410044","NA","1644832","1649114","715","NA","NA","1644830","1649609","1453571","1644830","1115473","NA","1644832","717","New experiment","NA","0","0","0","yes","1024"
"undefined","undefined","undefined","undefined","black","no","legacy","0","uniform","undefined","undefined","undefined","89","89","179","89","89","NA","89","89","0","0","0","89","89","0","89","0","NA","89","0","Thu 30 May 2019 10:46:36 AM PDT","500","1000","The main experiment item","yes","NA","ABX_v3.osexp","/home/ubuntu/Desktop/panara","yes","no","mono","no","18","no","white","no","yes","768","35","53","/home/ubuntu/Desktop/panara/subject-701.csv","Jazzy James","3.1.3","3.1.4.wav","3.2.4.wav","3.2.2.wav","0","1","space","1","NA","774","21501","774","NA","1114755","space","2","1024","2","48000","-16","experiment","3.2.2.wav","3.1.4.wav","3.2.4.wav","701","odd","1650782","1653317","1652817","1652067","1410044","NA","1649782","1654098","715","NA","NA","1649779","1654872","1453571","1649779","1115473","NA","1649782","717","New experiment","NA","0","0","0","yes","1024"
"undefined","undefined","undefined","undefined","black","no","legacy","0","uniform","undefined","undefined","undefined","90","90","181","90","90","NA","90","90","0","0","0","90","90","0","90","0","NA","90","0","Thu 30 May 2019 10:46:36 AM PDT","500","1000","The main experiment item","yes","NA","ABX_v3.osexp","/home/ubuntu/Desktop/panara","yes","no","mono","no","18","no","white","no","yes","768","36","53","/home/ubuntu/Desktop/panara/subject-701.csv","Jazzy James","3.1.3","4.1.3.wav","4.1.1.wav","4.2.1.wav","0","0","space","0","NA","544","21501","544","NA","1114755","space","2","1024","2","48000","-16","experiment","4.2.1.wav","4.1.3.wav","4.1.1.wav","701","odd","1656037","1658521","1658021","1657300","1410044","NA","1655037","1659240","715","NA","NA","1655035","1659784","1453571","1655035","1115473","NA","1655037","717","New experiment","NA","0","0","0","yes","1024"
"undefined","undefined","undefined","undefined","black","no","legacy","0","uniform","undefined","undefined","undefined","91","91","183","91","91","NA","91","91","0","0","0","91","91","0","91","0","NA","91","0","Thu 30 May 2019 10:46:36 AM PDT","500","1000","The main experiment item","yes","NA","ABX_v3.osexp","/home/ubuntu/Desktop/panara","no","no","mono","no","18","no","white","no","yes","768","37","53","/home/ubuntu/Desktop/panara/subject-701.csv","Jazzy James","3.1.3","1.1.3.wav","1.1.5.wav","2.1.5.wav","0","1","space","1","NA","830","21501","830","NA","1114755","space","2","1024","2","48000","-16","experiment","1.1.3.wav","2.1.5.wav","1.1.5.wav","701","odd","1660967","1663550","1663050","1662271","1410044","NA","1659966","1664304","715","NA","NA","1659964","1665135","1453571","1659964","1115473","NA","1659967","717","New experiment","NA","0","0","0","yes","1024"
"undefined","undefined","undefined","undefined","black","no","legacy","0","uniform","undefined","undefined","undefined","92","92","185","92","92","NA","92","92","0","0","0","92","92","0","92","0","NA","92","0","Thu 30 May 2019 10:46:36 AM PDT","500","1000","The main experiment item","yes","NA","ABX_v3.osexp","/home/ubuntu/Desktop/panara","yes","no","mono","no","18","no","white","no","yes","768","38","53","/home/ubuntu/Desktop/panara/subject-701.csv","Jazzy James","3.1.3","3.1.5.wav","3.2.5.wav","3.2.3.wav","0","1","space","1","NA","920","21501","920","NA","1114755","space","2","1024","2","48000","-16","experiment","3.2.3.wav","3.1.5.wav","3.2.5.wav","701","odd","1666306","1668868","1668368","1667588","1410044","NA","1665306","1669623","715","NA","NA","1665303","1670544","1453571","1665303","1115473","NA","1665306","717","New experiment","NA","0","0","0","yes","1024"
"undefined","undefined","undefined","undefined","black","no","legacy","0","uniform","undefined","undefined","undefined","93","93","187","93","93","NA","93","93","0","0","0","93","93","0","93","0","NA","93","0","Thu 30 May 2019 10:46:36 AM PDT","500","1000","The main experiment item","yes","NA","ABX_v3.osexp","/home/ubuntu/Desktop/panara","no","no","mono","no","18","no","white","no","yes","768","39","53","/home/ubuntu/Desktop/panara/subject-701.csv","Jazzy James","3.1.3","3.2.3.wav","3.2.5.wav","4.2.5.wav","0","1","space","1","NA","952","21501","952","NA","1114755","space","2","1024","2","48000","-16","experiment","3.2.3.wav","4.2.5.wav","3.2.5.wav","701","odd","1671737","1674273","1673773","1672994","1410044","NA","1670736","1674999","715","NA","NA","1670734","1675952","1453571","1670734","1115473","NA","1670736","717","New experiment","NA","0","0","0","yes","1024"
"undefined","undefined","undefined","undefined","black","no","legacy","0","uniform","undefined","undefined","undefined","94","94","189","94","94","NA","94","94","0","0","0","94","94","0","94","0","NA","94","0","Thu 30 May 2019 10:46:36 AM PDT","500","1000","The main experiment item","yes","NA","ABX_v3.osexp","/home/ubuntu/Desktop/panara","yes","no","mono","no","18","no","white","no","yes","768","40","53","/home/ubuntu/Desktop/panara/subject-701.csv","Jazzy James","3.1.3","3.1.5.wav","3.1.3.wav","3.2.3.wav","0","1","space","1","NA","799","21501","799","NA","1114755","space","2","1024","2","48000","-16","experiment","3.2.3.wav","3.1.5.wav","3.1.3.wav","701","odd","1677136","1679677","1679177","1678425","1410044","NA","1676136","1680432","715","NA","NA","1676133","1681231","1453571","1676133","1115473","NA","1676136","717","New experiment","NA","0","0","0","yes","1024"
"undefined","undefined","undefined","undefined","black","no","legacy","0","uniform","undefined","undefined","undefined","95","95","191","95","95","NA","95","95","0","0","0","95","95","0","95","0","NA","95","0","Thu 30 May 2019 10:46:36 AM PDT","500","1000","The main experiment item","yes","NA","ABX_v3.osexp","/home/ubuntu/Desktop/panara","no","no","mono","no","18","no","white","no","yes","768","41","53","/home/ubuntu/Desktop/panara/subject-701.csv","Jazzy James","3.1.3","3.2.1.wav","3.2.3.wav","4.2.3.wav","0","0","space","0","NA","1727","21501","1727","NA","1114755","space","2","1024","2","48000","-16","experiment","3.2.1.wav","4.2.3.wav","3.2.3.wav","701","odd","1682407","1685214","1684714","1683650","1410044","NA","1681407","1685983","715","NA","NA","1681405","1687711","1453571","1681405","1115473","NA","1681407","717","New experiment","NA","0","0","0","yes","1024"
"undefined","undefined","undefined","undefined","black","no","legacy","0","uniform","undefined","undefined","undefined","96","96","193","96","96","NA","96","96","0","0","0","96","96","0","96","0","NA","96","0","Thu 30 May 2019 10:46:36 AM PDT","500","1000","The main experiment item","yes","NA","ABX_v3.osexp","/home/ubuntu/Desktop/panara","no","no","mono","no","18","no","white","no","yes","768","42","53","/home/ubuntu/Desktop/panara/subject-701.csv","Jazzy James","3.1.3","1.1.1.wav","1.1.3.wav","1.2.3.wav","0","0","space","0","NA","573","21501","573","NA","1114755","space","2","1024","2","48000","-16","experiment","1.1.1.wav","1.2.3.wav","1.1.3.wav","701","odd","1688892","1691438","1690938","1690163","1410044","NA","1687892","1692225","715","NA","NA","1687890","1692799","1453571","1687889","1115473","NA","1687892","717","New experiment","NA","0","0","0","yes","1024"
"undefined","undefined","undefined","undefined","black","no","legacy","0","uniform","undefined","undefined","undefined","97","97","195","97","97","NA","97","97","0","0","0","97","97","0","97","0","NA","97","0","Thu 30 May 2019 10:46:36 AM PDT","500","1000","The main experiment item","yes","NA","ABX_v3.osexp","/home/ubuntu/Desktop/panara","no","no","mono","no","18","no","white","no","yes","768","43","53","/home/ubuntu/Desktop/panara/subject-701.csv","Jazzy James","3.1.3","3.2.2.wav","3.2.4.wav","4.2.4.wav","0","0","space","0","NA","1001","21501","1001","NA","1114755","space","2","1024","2","48000","-16","experiment","3.2.2.wav","4.2.4.wav","3.2.4.wav","701","odd","1693980","1696518","1696018","1695287","1410044","NA","1692980","1697277","715","NA","NA","1692978","1698279","1453571","1692978","1115473","NA","1692980","717","New experiment","NA","0","0","0","yes","1024"
"undefined","undefined","undefined","undefined","black","no","legacy","0","uniform","undefined","undefined","undefined","98","98","197","98","98","NA","98","98","0","0","0","98","98","0","98","0","NA","98","0","Thu 30 May 2019 10:46:36 AM PDT","500","1000","The main experiment item","yes","NA","ABX_v3.osexp","/home/ubuntu/Desktop/panara","yes","no","mono","no","18","no","white","no","yes","768","44","53","/home/ubuntu/Desktop/panara/subject-701.csv","Jazzy James","3.1.3","1.1.5.wav","3.1.5.wav","3.1.3.wav","0","0","space","0","NA","350","21501","350","NA","1114755","space","2","1024","2","48000","-16","experiment","3.1.3.wav","1.1.5.wav","3.1.5.wav","701","odd","1699434","1702002","1701502","1700718","1410044","NA","1698434","1702751","715","NA","NA","1698431","1703102","1453571","1698431","1115473","NA","1698434","717","New experiment","NA","0","0","0","yes","1024"
"undefined","undefined","undefined","undefined","black","no","legacy","0","uniform","undefined","undefined","undefined","99","99","199","99","99","NA","99","99","0","0","0","99","99","0","99","0","NA","99","0","Thu 30 May 2019 10:46:36 AM PDT","500","1000","The main experiment item","yes","NA","ABX_v3.osexp","/home/ubuntu/Desktop/panara","yes","no","mono","no","18","no","white","no","yes","768","45","53","/home/ubuntu/Desktop/panara/subject-701.csv","Jazzy James","3.1.3","1.2.5.wav","3.2.5.wav","3.2.3.wav","0","0","space","0","NA","265","21501","265","NA","1114755","space","2","1024","2","48000","-16","experiment","3.2.3.wav","1.2.5.wav","3.2.5.wav","701","odd","1704282","1706826","1706326","1705551","1410044","NA","1703282","1707589","715","NA","NA","1703280","1707854","1453571","1703279","1115473","NA","1703282","717","New experiment","NA","0","0","0","yes","1024"
"undefined","undefined","undefined","undefined","black","no","legacy","0","uniform","undefined","undefined","undefined","100","100","201","100","100","NA","100","100","0","0","0","100","100","0","100","0","NA","100","0","Thu 30 May 2019 10:46:36 AM PDT","500","1000","The main experiment item","yes","NA","ABX_v3.osexp","/home/ubuntu/Desktop/panara","no","no","mono","no","18","no","white","no","yes","768","46","53","/home/ubuntu/Desktop/panara/subject-701.csv","Jazzy James","3.1.3","2.1.1.wav","4.1.1.wav","4.1.3.wav","0","0","space","0","NA","528","4312","528","NA","1114755","space","2","1024","2","48000","-16","experiment","2.1.1.wav","4.1.3.wav","4.1.1.wav","701","odd","1713337","1715822","1715322","1714570","1708021","NA","1712337","1716548","715","NA","NA","1708019","1717077","1453571","1708019","1115473","NA","1712337","717","New experiment","NA","0","0","0","yes","1024"
"undefined","undefined","undefined","undefined","black","no","legacy","0","uniform","undefined","undefined","undefined","101","101","203","101","101","NA","101","101","0","0","0","101","101","0","101","0","NA","101","0","Thu 30 May 2019 10:46:36 AM PDT","500","1000","The main experiment item","yes","NA","ABX_v3.osexp","/home/ubuntu/Desktop/panara","yes","no","mono","no","18","no","white","no","yes","768","47","53","/home/ubuntu/Desktop/panara/subject-701.csv","Jazzy James","3.1.3","3.2.5.wav","1.2.5.wav","1.2.3.wav","0","0","space","0","NA","181","4312","181","NA","1114755","space","2","1024","2","48000","-16","experiment","1.2.3.wav","3.2.5.wav","1.2.5.wav","701","odd","1718264","1720801","1720301","1719541","1708021","NA","1717264","1721584","715","NA","NA","1717261","1721766","1453571","1717261","1115473","NA","1717264","717","New experiment","NA","0","0","0","yes","1024"
"undefined","undefined","undefined","undefined","black","no","legacy","0","uniform","undefined","undefined","undefined","102","102","205","102","102","NA","102","102","0","0","0","102","102","0","102","0","NA","102","0","Thu 30 May 2019 10:46:36 AM PDT","500","1000","The main experiment item","yes","NA","ABX_v3.osexp","/home/ubuntu/Desktop/panara","yes","no","mono","no","18","no","white","no","yes","768","48","53","/home/ubuntu/Desktop/panara/subject-701.csv","Jazzy James","3.1.3","4.2.3.wav","4.2.1.wav","2.2.1.wav","0","1","space","1","NA","1176","4312","1176","NA","1114755","space","2","1024","2","48000","-16","experiment","2.2.1.wav","4.2.3.wav","4.2.1.wav","701","odd","1722941","1725405","1724904","1724193","1708021","NA","1721941","1726125","715","NA","NA","1721938","1727302","1453571","1721938","1115473","NA","1721941","717","New experiment","NA","0","0","0","yes","1024"
"undefined","undefined","undefined","undefined","black","no","legacy","0","uniform","undefined","undefined","undefined","103","103","207","103","103","NA","103","103","0","0","0","103","103","0","103","0","NA","103","0","Thu 30 May 2019 10:46:36 AM PDT","500","1000","The main experiment item","yes","NA","ABX_v3.osexp","/home/ubuntu/Desktop/panara","no","no","mono","no","18","no","white","no","yes","768","49","53","/home/ubuntu/Desktop/panara/subject-701.csv","Jazzy James","3.1.3","1.1.1.wav","1.2.1.wav","1.2.3.wav","0","0","space","0","NA","1662","4312","1662","NA","1114755","space","2","1024","2","48000","-16","experiment","1.1.1.wav","1.2.3.wav","1.2.1.wav","701","odd","1728465","1731053","1730553","1729773","1708021","NA","1727464","1731839","715","NA","NA","1727461","1733501","1453571","1727461","1115473","NA","1727465","717","New experiment","NA","0","0","0","yes","1024"
"undefined","undefined","undefined","undefined","black","no","legacy","0","uniform","undefined","undefined","undefined","104","104","209","104","104","NA","104","104","0","0","0","104","104","0","104","0","NA","104","0","Thu 30 May 2019 10:46:36 AM PDT","500","1000","The main experiment item","yes","NA","ABX_v3.osexp","/home/ubuntu/Desktop/panara","no","no","mono","no","18","no","white","no","yes","768","50","53","/home/ubuntu/Desktop/panara/subject-701.csv","Jazzy James","3.1.3","2.1.1.wav","2.1.3.wav","1.1.3.wav","0","0","space","0","NA","1103","4312","1103","NA","1114755","space","2","1024","2","48000","-16","experiment","2.1.1.wav","1.1.3.wav","2.1.3.wav","701","odd","1734651","1737133","1736633","1735882","1708021","NA","1733651","1737924","715","NA","NA","1733648","1739028","1453571","1733648","1115473","NA","1733651","717","New experiment","NA","0","0","0","yes","1024"
"undefined","undefined","undefined","undefined","black","no","legacy","0","uniform","undefined","undefined","undefined","105","105","211","105","105","NA","105","105","0","0","0","105","105","0","105","0","NA","105","0","Thu 30 May 2019 10:46:36 AM PDT","500","1000","The main experiment item","yes","NA","ABX_v3.osexp","/home/ubuntu/Desktop/panara","no","no","mono","no","18","no","white","no","yes","768","51","53","/home/ubuntu/Desktop/panara/subject-701.csv","Jazzy James","3.1.3","1.2.1.wav","1.2.3.wav","3.2.3.wav","0","0","space","0","NA","1361","4312","1361","NA","1114755","space","2","1024","2","48000","-16","experiment","1.2.1.wav","3.2.3.wav","1.2.3.wav","701","odd","1740149","1742704","1742204","1741420","1708021","NA","1739149","1743443","715","NA","NA","1739146","1744805","1453571","1739146","1115473","NA","1739149","717","New experiment","NA","0","0","0","yes","1024"
"undefined","undefined","undefined","undefined","black","no","legacy","0","uniform","undefined","undefined","undefined","106","106","213","106","106","NA","106","106","0","0","0","106","106","0","106","0","NA","106","0","Thu 30 May 2019 10:46:36 AM PDT","500","1000","The main experiment item","yes","NA","ABX_v3.osexp","/home/ubuntu/Desktop/panara","yes","no","mono","no","18","no","white","no","yes","768","52","53","/home/ubuntu/Desktop/panara/subject-701.csv","Jazzy James","3.1.3","3.2.4.wav","3.2.2.wav","4.2.2.wav","0","1","space","1","NA","340","4312","340","NA","1114755","space","2","1024","2","48000","-16","experiment","4.2.2.wav","3.2.4.wav","3.2.2.wav","701","odd","1745988","1748531","1748031","1747248","1708021","NA","1744988","1749247","715","NA","NA","1744986","1749588","1453571","1744986","1115473","NA","1744988","717","New experiment","NA","0","0","0","yes","1024"
"undefined","undefined","undefined","undefined","black","no","legacy","0","uniform","undefined","undefined","undefined","107","107","215","107","107","NA","107","107","0","0","0","107","107","0","107","0","NA","107","0","Thu 30 May 2019 10:46:36 AM PDT","500","1000","The main experiment item","yes","NA","ABX_v3.osexp","/home/ubuntu/Desktop/panara","yes","no","mono","no","18","no","white","no","yes","768","53","53","/home/ubuntu/Desktop/panara/subject-701.csv","Jazzy James","3.1.3","1.1.3.wav","1.1.1.wav","2.1.1.wav","0","0","space","0","NA","896","4312","896","NA","1114755","space","2","1024","2","48000","-16","experiment","2.1.1.wav","1.1.3.wav","1.1.1.wav","701","odd","1750752","1753353","1752853","1752071","1708021","NA","1749751","1754091","715","NA","NA","1749749","1754988","1453571","1749748","1115473","NA","1749752","717","New experiment","NA","0","0","0","yes","1024"
"undefined","undefined","undefined","undefined","black","no","legacy","0","uniform","undefined","undefined","undefined","108","108","217","108","108","NA","108","108","0","0","0","108","108","0","108","0","NA","108","0","Thu 30 May 2019 10:46:36 AM PDT","500","1000","The main experiment item","yes","NA","ABX_v3.osexp","/home/ubuntu/Desktop/panara","yes","no","mono","no","18","no","white","no","yes","768","54","53","/home/ubuntu/Desktop/panara/subject-701.csv","Jazzy James","3.1.3","2.1.4.wav","2.1.2.wav","4.1.2.wav","0","1","space","1","NA","658","4312","658","NA","1114755","space","2","1024","2","48000","-16","experiment","4.1.2.wav","2.1.4.wav","2.1.2.wav","701","odd","1756135","1758620","1758120","1757386","1708021","NA","1755135","1759384","715","NA","NA","1755132","1760042","1453571","1755132","1115473","NA","1755135","717","New experiment","NA","0","0","0","yes","1024"
"undefined","undefined","undefined","undefined","black","no","legacy","0","uniform","undefined","undefined","undefined","109","109","219","109","109","NA","109","109","0","0","0","109","109","0","109","0","NA","109","0","Thu 30 May 2019 10:46:36 AM PDT","500","1000","The main experiment item","yes","NA","ABX_v3.osexp","/home/ubuntu/Desktop/panara","no","no","mono","no","18","no","white","no","yes","768","55","53","/home/ubuntu/Desktop/panara/subject-701.csv","Jazzy James","3.1.3","3.1.1.wav","3.1.3.wav","1.1.3.wav","0","1","space","1","NA","447","4312","447","NA","1114755","space","2","1024","2","48000","-16","experiment","3.1.1.wav","1.1.3.wav","3.1.3.wav","701","odd","1761207","1763721","1763221","1762457","1708021","NA","1760207","1764499","715","NA","NA","1760205","1764947","1453571","1760205","1115473","NA","1760207","717","New experiment","NA","0","0","0","yes","1024"
"undefined","undefined","undefined","undefined","black","no","legacy","0","uniform","undefined","undefined","undefined","110","110","221","110","110","NA","110","110","0","0","0","110","110","0","110","0","NA","110","0","Thu 30 May 2019 10:46:36 AM PDT","500","1000","The main experiment item","yes","NA","ABX_v3.osexp","/home/ubuntu/Desktop/panara","no","no","mono","no","18","no","white","no","yes","768","56","53","/home/ubuntu/Desktop/panara/subject-701.csv","Jazzy James","3.1.3","2.2.2.wav","2.2.4.wav","1.2.4.wav","0","1","space","1","NA","432","4312","432","NA","1114755","space","2","1024","2","48000","-16","experiment","2.2.2.wav","1.2.4.wav","2.2.4.wav","701","odd","1766107","1768575","1768075","1767364","1708021","NA","1765107","1769322","715","NA","NA","1765104","1769754","1453571","1765104","1115473","NA","1765107","717","New experiment","NA","0","0","0","yes","1024"
"undefined","undefined","undefined","undefined","black","no","legacy","0","uniform","undefined","undefined","undefined","111","111","223","111","111","NA","111","111","0","0","0","111","111","0","111","0","NA","111","0","Thu 30 May 2019 10:46:36 AM PDT","500","1000","The main experiment item","yes","NA","ABX_v3.osexp","/home/ubuntu/Desktop/panara","no","no","mono","no","18","no","white","no","yes","768","57","53","/home/ubuntu/Desktop/panara/subject-701.csv","Jazzy James","3.1.3","2.2.2.wav","2.1.2.wav","2.1.4.wav","0","1","space","1","NA","265","4312","265","NA","1114755","space","2","1024","2","48000","-16","experiment","2.2.2.wav","2.1.4.wav","2.1.2.wav","701","odd","1770936","1773423","1772922","1772170","1708021","NA","1769936","1774168","715","NA","NA","1769933","1774434","1453571","1769933","1115473","NA","1769936","717","New experiment","NA","0","0","0","yes","1024"
