"acc","accuracy","average_response_time","avg_rt","background","bidi","canvas_backend","compensation","coordinates","correct","correct_display_selecting","correct_welcome","count_A","count_B","count_ISI","count_X","count_break","count_determine_break","count_display_listening","count_display_selecting","count_experiment","count_finished","count_getting_started","count_new_inline_script","count_new_logger","count_new_loop","count_new_sequence","count_plain_block","count_setup_breaks","count_wait_nextitem","count_welcome","datetime","delay_ISI","delay_wait_nextitem","description","disable_garbage_collection","empty_column","experiment_file","experiment_path","flip_order","font_bold","font_family","font_italic","font_size","font_underline","foreground","form_clicks","fullscreen","height","live_row","live_row_plain_block","logfile","opensesame_codename","opensesame_version","play1","play2","play3","repeat_cycle","response","response_break","response_display_selecting","response_finished","response_time","response_time_break","response_time_display_selecting","response_time_finished","response_time_welcome","response_welcome","round_decimals","sound_buf_size","sound_channels","sound_freq","sound_sample_size","start","stimA","stimB","stimX","subject_nr","subject_parity","time_A","time_B","time_ISI","time_X","time_break","time_determine_break","time_display_listening","time_display_selecting","time_experiment","time_finished","time_getting_started","time_new_inline_script","time_new_logger","time_new_loop","time_new_sequence","time_plain_block","time_setup_breaks","time_wait_nextitem","time_welcome","title","to_break","total_correct","total_response_time","total_responses","uniform_coordinates","width"
"undefined","undefined","undefined","undefined","black","no","legacy","0","uniform","undefined","undefined","undefined","0","0","1","0","0","NA","0","0","0","0","0","0","0","0","0","0","NA","0","0","Thu 30 May 2019 10:47:41 AM PDT","500","1000","The main experiment item","yes","NA","ABX_v3.osexp","/home/ubuntu/Desktop/panara","yes","no","mono","no","18","no","white","no","yes","768","0","0","/home/ubuntu/Desktop/panara/subject-702.csv","Jazzy James","3.1.3","1.2.4.wav","1.2.4.wav","1.2.2.wav","0","0","NA","0","NA","2969","NA","2969","NA","1041991","space","2","1024","2","48000","-16","experiment","1.2.2.wav","1.2.4.wav","1.2.4.wav","702","even","1043793","1046310","1045810","1045050","NA","NA","1042793","1047077","751","NA","NA","1042790","1050047","NA","1042790","1042744","NA","1042793","753","New experiment","NA","0","0","0","yes","1024"
"undefined","undefined","undefined","undefined","black","no","legacy","0","uniform","undefined","undefined","undefined","1","1","3","1","1","NA","1","1","0","0","0","1","1","0","1","0","NA","1","0","Thu 30 May 2019 10:47:41 AM PDT","500","1000","The main experiment item","yes","NA","ABX_v3.osexp","/home/ubuntu/Desktop/panara","no","no","mono","no","18","no","white","no","yes","768","1","1","/home/ubuntu/Desktop/panara/subject-702.csv","Jazzy James","3.1.3","4.2.2.wav","4.2.4.wav","4.2.4.wav","0","1","NA","1","NA","3603","NA","3603","NA","1041991","space","2","1024","2","48000","-16","experiment","4.2.2.wav","4.2.4.wav","4.2.4.wav","702","even","1051338","1053779","1053279","1052534","NA","NA","1050337","1054515","751","NA","NA","1050335","1058118","NA","1050335","1042744","NA","1050338","753","New experiment","NA","0","0","0","yes","1024"
"undefined","undefined","undefined","undefined","black","no","legacy","0","uniform","undefined","undefined","undefined","2","2","5","2","2","NA","2","2","0","0","0","2","2","0","2","0","NA","2","0","Thu 30 May 2019 10:47:41 AM PDT","500","1000","The main experiment item","yes","NA","ABX_v3.osexp","/home/ubuntu/Desktop/panara","no","no","mono","no","18","no","white","no","yes","768","2","2","/home/ubuntu/Desktop/panara/subject-702.csv","Jazzy James","3.1.3","1.2.3.wav","1.2.3.wav","1.2.5.wav","0","1","NA","1","NA","4592","NA","4592","NA","1041991","space","2","1024","2","48000","-16","experiment","1.2.3.wav","1.2.5.wav","1.2.3.wav","702","even","1059295","1061843","1061343","1060561","NA","NA","1058294","1062622","751","NA","NA","1058292","1067215","NA","1058292","1042744","NA","1058295","753","New experiment","NA","0","0","0","yes","1024"
"undefined","undefined","undefined","undefined","black","no","legacy","0","uniform","undefined","undefined","undefined","3","3","7","3","3","NA","3","3","0","0","0","3","3","0","3","0","NA","3","0","Thu 30 May 2019 10:47:41 AM PDT","500","1000","The main experiment item","yes","NA","ABX_v3.osexp","/home/ubuntu/Desktop/panara","no","no","mono","no","18","no","white","no","yes","768","3","3","/home/ubuntu/Desktop/panara/subject-702.csv","Jazzy James","3.1.3","2.2.2.wav","2.2.4.wav","2.2.4.wav","0","0","NA","0","NA","4437","NA","4437","NA","1041991","space","2","1024","2","48000","-16","experiment","2.2.2.wav","2.2.4.wav","2.2.4.wav","702","even","1068455","1070930","1070430","1069689","NA","NA","1067455","1071664","751","NA","NA","1067452","1076101","NA","1067452","1042744","NA","1067455","753","New experiment","NA","0","0","0","yes","1024"
"undefined","undefined","undefined","undefined","black","no","legacy","0","uniform","undefined","undefined","undefined","4","4","9","4","4","NA","4","4","0","0","0","4","4","0","4","0","NA","4","0","Thu 30 May 2019 10:47:41 AM PDT","500","1000","The main experiment item","yes","NA","ABX_v3.osexp","/home/ubuntu/Desktop/panara","no","no","mono","no","18","no","white","no","yes","768","4","4","/home/ubuntu/Desktop/panara/subject-702.csv","Jazzy James","3.1.3","5.2.2.wav","5.2.4.wav","5.2.4.wav","0","1","NA","1","NA","3374","NA","3374","NA","1041991","space","2","1024","2","48000","-16","experiment","5.2.2.wav","5.2.4.wav","5.2.4.wav","702","even","1077266","1079739","1079239","1078480","NA","NA","1076266","1080503","751","NA","NA","1076264","1083878","NA","1076264","1042744","NA","1076266","753","New experiment","NA","0","0","0","yes","1024"
"undefined","undefined","undefined","undefined","black","no","legacy","0","uniform","undefined","undefined","undefined","5","5","11","5","5","NA","5","5","0","0","0","5","5","0","5","0","NA","5","0","Thu 30 May 2019 10:47:41 AM PDT","500","1000","The main experiment item","yes","NA","ABX_v3.osexp","/home/ubuntu/Desktop/panara","yes","no","mono","no","18","no","white","no","yes","768","5","5","/home/ubuntu/Desktop/panara/subject-702.csv","Jazzy James","3.1.3","1.2.3.wav","1.2.1.wav","1.2.1.wav","0","0","NA","0","NA","3913","NA","3913","NA","1041991","space","2","1024","2","48000","-16","experiment","1.2.1.wav","1.2.3.wav","1.2.1.wav","702","even","1085068","1087634","1087134","1086353","NA","NA","1084067","1088388","751","NA","NA","1084064","1092301","NA","1084064","1042744","NA","1084068","753","New experiment","NA","0","0","0","yes","1024"
"undefined","undefined","undefined","undefined","black","no","legacy","0","uniform","undefined","undefined","undefined","6","6","13","6","6","NA","6","6","0","0","0","6","6","0","6","0","NA","6","0","Thu 30 May 2019 10:47:41 AM PDT","500","1000","The main experiment item","yes","NA","ABX_v3.osexp","/home/ubuntu/Desktop/panara","no","no","mono","no","18","no","white","no","yes","768","6","6","/home/ubuntu/Desktop/panara/subject-702.csv","Jazzy James","3.1.3","2.2.3.wav","2.2.3.wav","2.2.5.wav","0","1","NA","1","NA","1567","NA","1567","NA","1041991","space","2","1024","2","48000","-16","experiment","2.2.3.wav","2.2.5.wav","2.2.3.wav","702","even","1093490","1095979","1095479","1094734","NA","NA","1092489","1096693","751","NA","NA","1092487","1098261","NA","1092487","1042744","NA","1092489","753","New experiment","NA","0","0","0","yes","1024"
"undefined","undefined","undefined","undefined","black","no","legacy","0","uniform","undefined","undefined","undefined","7","7","15","7","7","NA","7","7","0","0","0","7","7","0","7","0","NA","7","0","Thu 30 May 2019 10:47:41 AM PDT","500","1000","The main experiment item","yes","NA","ABX_v3.osexp","/home/ubuntu/Desktop/panara","no","no","mono","no","18","no","white","no","yes","768","7","7","/home/ubuntu/Desktop/panara/subject-702.csv","Jazzy James","3.1.3","3.1.2.wav","3.1.4.wav","3.1.4.wav","0","0","NA","0","NA","3017","NA","3017","NA","1041991","space","2","1024","2","48000","-16","experiment","3.1.2.wav","3.1.4.wav","3.1.4.wav","702","even","1099476","1101991","1101491","1100723","NA","NA","1098476","1102763","751","NA","NA","1098473","1105780","NA","1098473","1042744","NA","1098476","753","New experiment","NA","0","0","0","yes","1024"
"undefined","undefined","undefined","undefined","black","no","legacy","0","uniform","undefined","undefined","undefined","8","8","17","8","8","NA","8","8","0","0","0","8","8","0","8","0","NA","8","0","Thu 30 May 2019 10:47:41 AM PDT","500","1000","The main experiment item","yes","NA","ABX_v3.osexp","/home/ubuntu/Desktop/panara","yes","no","mono","no","18","no","white","no","yes","768","8","8","/home/ubuntu/Desktop/panara/subject-702.csv","Jazzy James","3.1.3","4.2.3.wav","4.2.3.wav","4.2.1.wav","0","1","NA","1","NA","1051","NA","1051","NA","1041991","space","2","1024","2","48000","-16","experiment","4.2.1.wav","4.2.3.wav","4.2.3.wav","702","even","1106973","1109479","1108979","1108233","NA","NA","1105973","1110193","751","NA","NA","1105970","1111244","NA","1105970","1042744","NA","1105973","753","New experiment","NA","0","0","0","yes","1024"
"undefined","undefined","undefined","undefined","black","no","legacy","0","uniform","undefined","undefined","undefined","9","9","19","9","9","NA","9","9","0","0","0","9","9","0","9","0","NA","9","0","Thu 30 May 2019 10:47:41 AM PDT","500","1000","The main experiment item","yes","NA","ABX_v3.osexp","/home/ubuntu/Desktop/panara","no","no","mono","no","18","no","white","no","yes","768","9","9","/home/ubuntu/Desktop/panara/subject-702.csv","Jazzy James","3.1.3","2.1.3.wav","2.1.5.wav","2.1.5.wav","0","0","NA","0","NA","1237","NA","1237","NA","1041991","space","2","1024","2","48000","-16","experiment","2.1.3.wav","2.1.5.wav","2.1.5.wav","702","even","1112431","1114940","1114440","1113658","NA","NA","1111431","1115679","751","NA","NA","1111428","1116916","NA","1111428","1042744","NA","1111431","753","New experiment","NA","0","0","0","yes","1024"
"undefined","undefined","undefined","undefined","black","no","legacy","0","uniform","undefined","undefined","undefined","10","10","21","10","10","NA","10","10","0","0","0","10","10","0","10","0","NA","10","0","Thu 30 May 2019 10:47:41 AM PDT","500","1000","The main experiment item","yes","NA","ABX_v3.osexp","/home/ubuntu/Desktop/panara","no","no","mono","no","18","no","white","no","yes","768","10","10","/home/ubuntu/Desktop/panara/subject-702.csv","Jazzy James","3.1.3","3.2.1.wav","3.2.3.wav","3.2.3.wav","0","0","NA","0","NA","1842","NA","1842","NA","1041991","space","2","1024","2","48000","-16","experiment","3.2.1.wav","3.2.3.wav","3.2.3.wav","702","even","1118107","1120636","1120136","1119377","NA","NA","1117106","1121393","751","NA","NA","1117104","1123236","NA","1117104","1042744","NA","1117107","753","New experiment","NA","0","0","0","yes","1024"
"undefined","undefined","undefined","undefined","black","no","legacy","0","uniform","undefined","undefined","undefined","11","11","23","11","11","NA","11","11","0","0","0","11","11","0","11","0","NA","11","0","Thu 30 May 2019 10:47:41 AM PDT","500","1000","The main experiment item","yes","NA","ABX_v3.osexp","/home/ubuntu/Desktop/panara","yes","no","mono","no","18","no","white","no","yes","768","11","11","/home/ubuntu/Desktop/panara/subject-702.csv","Jazzy James","3.1.3","2.1.4.wav","2.1.2.wav","2.1.2.wav","0","0","NA","0","NA","1994","NA","1994","NA","1041991","space","2","1024","2","48000","-16","experiment","2.1.2.wav","2.1.4.wav","2.1.2.wav","702","even","1124416","1126902","1126402","1125674","NA","NA","1123416","1127649","751","NA","NA","1123414","1129643","NA","1123414","1042744","NA","1123416","753","New experiment","NA","0","0","0","yes","1024"
"undefined","undefined","undefined","undefined","black","no","legacy","0","uniform","undefined","undefined","undefined","12","12","25","12","12","NA","12","12","0","0","0","12","12","0","12","0","NA","12","0","Thu 30 May 2019 10:47:41 AM PDT","500","1000","The main experiment item","yes","NA","ABX_v3.osexp","/home/ubuntu/Desktop/panara","yes","no","mono","no","18","no","white","no","yes","768","12","12","/home/ubuntu/Desktop/panara/subject-702.csv","Jazzy James","3.1.3","4.2.4.wav","4.2.2.wav","4.2.2.wav","0","0","NA","0","NA","2096","NA","2096","NA","1041991","space","2","1024","2","48000","-16","experiment","4.2.2.wav","4.2.4.wav","4.2.2.wav","702","even","1130810","1133234","1132734","1132022","NA","NA","1129810","1133962","751","NA","NA","1129808","1136058","NA","1129807","1042744","NA","1129810","753","New experiment","NA","0","0","0","yes","1024"
"undefined","undefined","undefined","undefined","black","no","legacy","0","uniform","undefined","undefined","undefined","13","13","27","13","13","NA","13","13","0","0","0","13","13","0","13","0","NA","13","0","Thu 30 May 2019 10:47:41 AM PDT","500","1000","The main experiment item","yes","NA","ABX_v3.osexp","/home/ubuntu/Desktop/panara","no","no","mono","no","18","no","white","no","yes","768","13","13","/home/ubuntu/Desktop/panara/subject-702.csv","Jazzy James","3.1.3","3.2.1.wav","3.2.1.wav","3.2.3.wav","0","0","NA","0","NA","3084","NA","3084","NA","1041991","space","2","1024","2","48000","-16","experiment","3.2.1.wav","3.2.3.wav","3.2.1.wav","702","even","1137250","1139771","1139271","1138506","NA","NA","1136250","1140502","751","NA","NA","1136247","1143587","NA","1136247","1042744","NA","1136250","753","New experiment","NA","0","0","0","yes","1024"
"undefined","undefined","undefined","undefined","black","no","legacy","0","uniform","undefined","undefined","undefined","14","14","29","14","14","NA","14","14","0","0","0","14","14","0","14","0","NA","14","0","Thu 30 May 2019 10:47:41 AM PDT","500","1000","The main experiment item","yes","NA","ABX_v3.osexp","/home/ubuntu/Desktop/panara","yes","no","mono","no","18","no","white","no","yes","768","14","14","/home/ubuntu/Desktop/panara/subject-702.csv","Jazzy James","3.1.3","2.2.4.wav","2.2.2.wav","2.2.2.wav","0","0","NA","0","NA","1666","NA","1666","NA","1041991","space","2","1024","2","48000","-16","experiment","2.2.2.wav","2.2.4.wav","2.2.2.wav","702","even","1144712","1147176","1146676","1145954","NA","NA","1143711","1147912","751","NA","NA","1143709","1149578","NA","1143709","1042744","NA","1143712","753","New experiment","NA","0","0","0","yes","1024"
"undefined","undefined","undefined","undefined","black","no","legacy","0","uniform","undefined","undefined","undefined","15","15","31","15","15","NA","15","15","0","0","0","15","15","0","15","0","NA","15","0","Thu 30 May 2019 10:47:41 AM PDT","500","1000","The main experiment item","yes","NA","ABX_v3.osexp","/home/ubuntu/Desktop/panara","yes","no","mono","no","18","no","white","no","yes","768","15","15","/home/ubuntu/Desktop/panara/subject-702.csv","Jazzy James","3.1.3","3.1.3.wav","3.1.3.wav","3.1.1.wav","0","0","NA","0","NA","3069","NA","3069","NA","1041991","space","2","1024","2","48000","-16","experiment","3.1.1.wav","3.1.3.wav","3.1.3.wav","702","even","1150786","1153291","1152791","1152039","NA","NA","1149785","1154035","751","NA","NA","1149782","1157105","NA","1149782","1042744","NA","1149786","753","New experiment","NA","0","0","0","yes","1024"
"undefined","undefined","undefined","undefined","black","no","legacy","0","uniform","undefined","undefined","undefined","16","16","33","16","16","NA","16","16","0","0","0","16","16","0","16","0","NA","16","0","Thu 30 May 2019 10:47:41 AM PDT","500","1000","The main experiment item","yes","NA","ABX_v3.osexp","/home/ubuntu/Desktop/panara","yes","no","mono","no","18","no","white","no","yes","768","16","16","/home/ubuntu/Desktop/panara/subject-702.csv","Jazzy James","3.1.3","3.2.5.wav","3.2.3.wav","3.2.3.wav","0","0","NA","0","NA","1173","NA","1173","NA","1041991","space","2","1024","2","48000","-16","experiment","3.2.3.wav","3.2.5.wav","3.2.3.wav","702","even","1158302","1160841","1160341","1159586","NA","NA","1157302","1161604","751","NA","NA","1157299","1162778","NA","1157299","1042744","NA","1157302","753","New experiment","NA","0","0","0","yes","1024"
"undefined","undefined","undefined","undefined","black","no","legacy","0","uniform","undefined","undefined","undefined","17","17","35","17","17","NA","17","17","0","0","0","17","17","0","17","0","NA","17","0","Thu 30 May 2019 10:47:41 AM PDT","500","1000","The main experiment item","yes","NA","ABX_v3.osexp","/home/ubuntu/Desktop/panara","yes","no","mono","no","18","no","white","no","yes","768","17","17","/home/ubuntu/Desktop/panara/subject-702.csv","Jazzy James","3.1.3","3.1.5.wav","3.1.3.wav","3.1.3.wav","0","1","NA","1","NA","2688","NA","2688","NA","1041991","space","2","1024","2","48000","-16","experiment","3.1.3.wav","3.1.5.wav","3.1.3.wav","702","even","1164009","1166499","1165999","1165266","NA","NA","1163009","1167273","751","NA","NA","1163006","1169961","NA","1163006","1042744","NA","1163009","753","New experiment","NA","0","0","0","yes","1024"
"undefined","undefined","undefined","undefined","black","no","legacy","0","uniform","undefined","undefined","undefined","18","18","37","18","18","NA","18","18","0","0","0","18","18","0","18","0","NA","18","0","Thu 30 May 2019 10:47:41 AM PDT","500","1000","The main experiment item","yes","NA","ABX_v3.osexp","/home/ubuntu/Desktop/panara","no","no","mono","no","18","no","white","no","yes","768","18","18","/home/ubuntu/Desktop/panara/subject-702.csv","Jazzy James","3.1.3","4.1.1.wav","4.1.3.wav","4.1.3.wav","0","0","NA","0","NA","3075","NA","3075","NA","1041991","space","2","1024","2","48000","-16","experiment","4.1.1.wav","4.1.3.wav","4.1.3.wav","702","even","1171179","1173666","1173166","1172425","NA","NA","1170179","1174389","751","NA","NA","1170176","1177465","NA","1170176","1042744","NA","1170179","753","New experiment","NA","0","0","0","yes","1024"
"undefined","undefined","undefined","undefined","black","no","legacy","0","uniform","undefined","undefined","undefined","19","19","39","19","19","NA","19","19","0","0","0","19","19","0","19","0","NA","19","0","Thu 30 May 2019 10:47:41 AM PDT","500","1000","The main experiment item","yes","NA","ABX_v3.osexp","/home/ubuntu/Desktop/panara","no","no","mono","no","18","no","white","no","yes","768","19","19","/home/ubuntu/Desktop/panara/subject-702.csv","Jazzy James","3.1.3","4.2.3.wav","4.2.3.wav","4.2.5.wav","0","1","NA","1","NA","1073","NA","1073","NA","1041991","space","2","1024","2","48000","-16","experiment","4.2.3.wav","4.2.5.wav","4.2.3.wav","702","even","1178627","1181151","1180651","1179879","NA","NA","1177627","1181895","751","NA","NA","1177625","1182969","NA","1177624","1042744","NA","1177627","753","New experiment","NA","0","0","0","yes","1024"
"undefined","undefined","undefined","undefined","black","no","legacy","0","uniform","undefined","undefined","undefined","20","20","41","20","20","NA","20","20","0","0","0","20","20","0","20","0","NA","20","0","Thu 30 May 2019 10:47:41 AM PDT","500","1000","The main experiment item","yes","NA","ABX_v3.osexp","/home/ubuntu/Desktop/panara","no","no","mono","no","18","no","white","no","yes","768","20","20","/home/ubuntu/Desktop/panara/subject-702.csv","Jazzy James","3.1.3","4.1.3.wav","4.1.5.wav","4.1.5.wav","0","0","NA","0","NA","1090","NA","1090","NA","1041991","space","2","1024","2","48000","-16","experiment","4.1.3.wav","4.1.5.wav","4.1.5.wav","702","even","1184170","1186640","1186140","1185395","NA","NA","1183170","1187374","751","NA","NA","1183168","1188464","NA","1183167","1042744","NA","1183170","753","New experiment","NA","0","0","0","yes","1024"
"undefined","undefined","undefined","undefined","black","no","legacy","0","uniform","undefined","undefined","undefined","21","21","43","21","21","NA","21","21","0","0","0","21","21","0","21","0","NA","21","0","Thu 30 May 2019 10:47:41 AM PDT","500","1000","The main experiment item","yes","NA","ABX_v3.osexp","/home/ubuntu/Desktop/panara","yes","no","mono","no","18","no","white","no","yes","768","21","21","/home/ubuntu/Desktop/panara/subject-702.csv","Jazzy James","3.1.3","4.1.3.wav","4.1.1.wav","4.1.1.wav","0","0","NA","0","NA","1695","NA","1695","NA","1041991","space","2","1024","2","48000","-16","experiment","4.1.1.wav","4.1.3.wav","4.1.1.wav","702","even","1189643","1192094","1191594","1190861","NA","NA","1188642","1192809","751","NA","NA","1188640","1194504","NA","1188640","1042744","NA","1188643","753","New experiment","NA","0","0","0","yes","1024"
"undefined","undefined","undefined","undefined","black","no","legacy","0","uniform","undefined","undefined","undefined","22","22","45","22","22","NA","22","22","0","0","0","22","22","0","22","0","NA","22","0","Thu 30 May 2019 10:47:41 AM PDT","500","1000","The main experiment item","yes","NA","ABX_v3.osexp","/home/ubuntu/Desktop/panara","yes","no","mono","no","18","no","white","no","yes","768","22","22","/home/ubuntu/Desktop/panara/subject-702.csv","Jazzy James","3.1.3","5.2.5.wav","5.2.5.wav","5.2.3.wav","0","1","NA","1","NA","999","NA","999","NA","1041991","space","2","1024","2","48000","-16","experiment","5.2.3.wav","5.2.5.wav","5.2.5.wav","702","even","1195758","1198246","1197746","1197008","NA","NA","1194758","1198984","751","NA","NA","1194755","1199984","NA","1194755","1042744","NA","1194758","753","New experiment","NA","0","0","0","yes","1024"
"undefined","undefined","undefined","undefined","black","no","legacy","0","uniform","undefined","undefined","undefined","23","23","47","23","23","NA","23","23","0","0","0","23","23","0","23","0","NA","23","0","Thu 30 May 2019 10:47:41 AM PDT","500","1000","The main experiment item","yes","NA","ABX_v3.osexp","/home/ubuntu/Desktop/panara","yes","no","mono","no","18","no","white","no","yes","768","23","23","/home/ubuntu/Desktop/panara/subject-702.csv","Jazzy James","3.1.3","1.2.4.wav","1.2.2.wav","1.2.2.wav","0","0","NA","0","NA","2295","NA","2295","NA","1041991","space","2","1024","2","48000","-16","experiment","1.2.2.wav","1.2.4.wav","1.2.2.wav","702","even","1201123","1203683","1203183","1202376","NA","NA","1200123","1204440","751","NA","NA","1200120","1206735","NA","1200120","1042744","NA","1200123","753","New experiment","NA","0","0","0","yes","1024"
"undefined","undefined","undefined","undefined","black","no","legacy","0","uniform","undefined","undefined","undefined","24","24","49","24","24","NA","24","24","0","0","0","24","24","0","24","0","NA","24","0","Thu 30 May 2019 10:47:41 AM PDT","500","1000","The main experiment item","yes","NA","ABX_v3.osexp","/home/ubuntu/Desktop/panara","yes","no","mono","no","18","no","white","no","yes","768","24","24","/home/ubuntu/Desktop/panara/subject-702.csv","Jazzy James","3.1.3","1.1.4.wav","1.1.4.wav","1.1.2.wav","0","1","NA","1","NA","3149","NA","3149","NA","1041991","space","2","1024","2","48000","-16","experiment","1.1.2.wav","1.1.4.wav","1.1.4.wav","702","even","1207961","1210527","1210027","1209271","NA","NA","1206961","1211306","751","NA","NA","1206958","1214455","NA","1206958","1042744","NA","1206961","753","New experiment","NA","0","0","0","yes","1024"
"undefined","undefined","undefined","undefined","black","no","legacy","0","uniform","undefined","undefined","undefined","25","25","51","25","25","NA","25","25","0","0","0","25","25","0","25","0","NA","25","0","Thu 30 May 2019 10:47:41 AM PDT","500","1000","The main experiment item","yes","NA","ABX_v3.osexp","/home/ubuntu/Desktop/panara","yes","no","mono","no","18","no","white","no","yes","768","25","25","/home/ubuntu/Desktop/panara/subject-702.csv","Jazzy James","3.1.3","5.2.5.wav","5.2.3.wav","5.2.3.wav","0","0","NA","0","NA","1666","NA","1666","NA","1041991","space","2","1024","2","48000","-16","experiment","5.2.3.wav","5.2.5.wav","5.2.3.wav","702","even","1215601","1218082","1217582","1216866","NA","NA","1214600","1218796","751","NA","NA","1214598","1220463","NA","1214597","1042744","NA","1214601","753","New experiment","NA","0","0","0","yes","1024"
"undefined","undefined","undefined","undefined","black","no","legacy","0","uniform","undefined","undefined","undefined","26","26","53","26","26","NA","26","26","0","0","0","26","26","0","26","0","NA","26","0","Thu 30 May 2019 10:47:41 AM PDT","500","1000","The main experiment item","yes","NA","ABX_v3.osexp","/home/ubuntu/Desktop/panara","no","no","mono","no","18","no","white","no","yes","768","26","26","/home/ubuntu/Desktop/panara/subject-702.csv","Jazzy James","3.1.3","4.1.2.wav","4.1.4.wav","4.1.4.wav","0","1","NA","1","NA","1244","NA","1244","NA","1041991","space","2","1024","2","48000","-16","experiment","4.1.2.wav","4.1.4.wav","4.1.4.wav","702","even","1221648","1224444","1223944","1223207","NA","NA","1220648","1225162","751","NA","NA","1220646","1226407","NA","1220646","1042744","NA","1220648","753","New experiment","NA","0","0","0","yes","1024"
"undefined","undefined","undefined","undefined","black","no","legacy","0","uniform","undefined","undefined","undefined","27","27","55","27","27","NA","27","27","0","0","0","27","27","0","27","0","NA","27","0","Thu 30 May 2019 10:47:41 AM PDT","500","1000","The main experiment item","yes","NA","ABX_v3.osexp","/home/ubuntu/Desktop/panara","yes","no","mono","no","18","no","white","no","yes","768","27","27","/home/ubuntu/Desktop/panara/subject-702.csv","Jazzy James","3.1.3","1.1.3.wav","1.1.1.wav","1.1.1.wav","0","0","NA","0","NA","1287","NA","1287","NA","1041991","space","2","1024","2","48000","-16","experiment","1.1.1.wav","1.1.3.wav","1.1.1.wav","702","even","1227594","1230196","1229696","1228888","NA","NA","1226593","1231007","751","NA","NA","1226591","1232294","NA","1226591","1042744","NA","1226594","753","New experiment","NA","0","0","0","yes","1024"
"undefined","undefined","undefined","undefined","black","no","legacy","0","uniform","undefined","undefined","undefined","28","28","57","28","28","NA","28","28","0","0","0","28","28","0","28","0","NA","28","0","Thu 30 May 2019 10:47:41 AM PDT","500","1000","The main experiment item","yes","NA","ABX_v3.osexp","/home/ubuntu/Desktop/panara","no","no","mono","no","18","no","white","no","yes","768","28","28","/home/ubuntu/Desktop/panara/subject-702.csv","Jazzy James","3.1.3","3.2.2.wav","3.2.2.wav","3.2.4.wav","0","1","NA","1","NA","1028","NA","1028","NA","1041991","space","2","1024","2","48000","-16","experiment","3.2.2.wav","3.2.4.wav","3.2.2.wav","702","even","1233475","1236041","1235541","1234761","NA","NA","1232475","1236802","751","NA","NA","1232473","1237830","NA","1232473","1042744","NA","1232475","753","New experiment","NA","0","0","0","yes","1024"
"undefined","undefined","undefined","undefined","black","no","legacy","0","uniform","undefined","undefined","undefined","29","29","59","29","29","NA","29","29","0","0","0","29","29","0","29","0","NA","29","0","Thu 30 May 2019 10:47:41 AM PDT","500","1000","The main experiment item","yes","NA","ABX_v3.osexp","/home/ubuntu/Desktop/panara","yes","no","mono","no","18","no","white","no","yes","768","29","29","/home/ubuntu/Desktop/panara/subject-702.csv","Jazzy James","3.1.3","5.2.3.wav","5.2.3.wav","5.2.1.wav","0","0","NA","0","NA","2686","NA","2686","NA","1041991","space","2","1024","2","48000","-16","experiment","5.2.1.wav","5.2.3.wav","5.2.3.wav","702","even","1238997","1241489","1240989","1240230","NA","NA","1237997","1242207","751","NA","NA","1237994","1244894","NA","1237994","1042744","NA","1237997","753","New experiment","NA","0","0","0","yes","1024"
"undefined","undefined","undefined","undefined","black","no","legacy","0","uniform","undefined","undefined","undefined","30","30","61","30","30","NA","30","30","0","0","0","30","30","0","30","0","NA","30","0","Thu 30 May 2019 10:47:41 AM PDT","500","1000","The main experiment item","yes","NA","ABX_v3.osexp","/home/ubuntu/Desktop/panara","yes","no","mono","no","18","no","white","no","yes","768","30","30","/home/ubuntu/Desktop/panara/subject-702.csv","Jazzy James","3.1.3","3.2.4.wav","3.2.4.wav","3.2.2.wav","0","0","NA","0","NA","2119","NA","2119","NA","1041991","space","2","1024","2","48000","-16","experiment","3.2.2.wav","3.2.4.wav","3.2.4.wav","702","even","1246074","1248591","1248091","1247341","NA","NA","1245074","1249374","751","NA","NA","1245071","1251493","NA","1245071","1042744","NA","1245074","753","New experiment","NA","0","0","0","yes","1024"
"undefined","undefined","undefined","undefined","black","no","legacy","0","uniform","undefined","undefined","undefined","31","31","63","31","31","NA","31","31","0","0","0","31","31","0","31","0","NA","31","0","Thu 30 May 2019 10:47:41 AM PDT","500","1000","The main experiment item","yes","NA","ABX_v3.osexp","/home/ubuntu/Desktop/panara","no","no","mono","no","18","no","white","no","yes","768","31","31","/home/ubuntu/Desktop/panara/subject-702.csv","Jazzy James","3.1.3","1.1.3.wav","1.1.3.wav","1.1.5.wav","0","1","NA","1","NA","2778","NA","2778","NA","1041991","space","2","1024","2","48000","-16","experiment","1.1.3.wav","1.1.5.wav","1.1.3.wav","702","even","1252675","1255269","1254769","1253990","NA","NA","1251675","1256051","751","NA","NA","1251673","1258829","NA","1251673","1042744","NA","1251675","753","New experiment","NA","0","0","0","yes","1024"
"undefined","undefined","undefined","undefined","black","no","legacy","0","uniform","undefined","undefined","undefined","32","32","65","32","32","NA","32","32","0","0","0","32","32","0","32","0","NA","32","0","Thu 30 May 2019 10:47:41 AM PDT","500","1000","The main experiment item","yes","NA","ABX_v3.osexp","/home/ubuntu/Desktop/panara","yes","no","mono","no","18","no","white","no","yes","768","32","32","/home/ubuntu/Desktop/panara/subject-702.csv","Jazzy James","3.1.3","1.1.3.wav","1.1.3.wav","1.1.1.wav","0","1","NA","1","NA","1401","NA","1401","NA","1041991","space","2","1024","2","48000","-16","experiment","1.1.1.wav","1.1.3.wav","1.1.3.wav","702","even","1260031","1262586","1262086","1261306","NA","NA","1259030","1263371","751","NA","NA","1259028","1264773","NA","1259028","1042744","NA","1259030","753","New experiment","NA","0","0","0","yes","1024"
"undefined","undefined","undefined","undefined","black","no","legacy","0","uniform","undefined","undefined","undefined","33","33","67","33","33","NA","33","33","0","0","0","33","33","0","33","0","NA","33","0","Thu 30 May 2019 10:47:41 AM PDT","500","1000","The main experiment item","yes","NA","ABX_v3.osexp","/home/ubuntu/Desktop/panara","yes","no","mono","no","18","no","white","no","yes","768","33","33","/home/ubuntu/Desktop/panara/subject-702.csv","Jazzy James","3.1.3","1.2.5.wav","1.2.5.wav","1.2.3.wav","0","0","NA","0","NA","1909","NA","1909","NA","1041991","space","2","1024","2","48000","-16","experiment","1.2.3.wav","1.2.5.wav","1.2.5.wav","702","even","1265924","1268480","1267980","1267200","NA","NA","1264923","1269263","751","NA","NA","1264920","1271173","NA","1264920","1042744","NA","1264923","753","New experiment","NA","0","0","0","yes","1024"
"undefined","undefined","undefined","undefined","black","no","legacy","0","uniform","undefined","undefined","undefined","34","34","69","34","34","NA","34","34","0","0","0","34","34","0","34","0","NA","34","0","Thu 30 May 2019 10:47:41 AM PDT","500","1000","The main experiment item","yes","NA","ABX_v3.osexp","/home/ubuntu/Desktop/panara","yes","no","mono","no","18","no","white","no","yes","768","34","34","/home/ubuntu/Desktop/panara/subject-702.csv","Jazzy James","3.1.3","2.1.4.wav","2.1.4.wav","2.1.2.wav","0","1","NA","1","NA","1725","NA","1725","NA","1041991","space","2","1024","2","48000","-16","experiment","2.1.2.wav","2.1.4.wav","2.1.4.wav","702","even","1272344","1274858","1274358","1273607","NA","NA","1271344","1275615","751","NA","NA","1271342","1277340","NA","1271342","1042744","NA","1271344","753","New experiment","NA","0","0","0","yes","1024"
"undefined","undefined","undefined","undefined","black","no","legacy","0","uniform","undefined","undefined","undefined","35","35","71","35","35","NA","35","35","0","0","0","35","35","0","35","0","NA","35","0","Thu 30 May 2019 10:47:41 AM PDT","500","1000","The main experiment item","yes","NA","ABX_v3.osexp","/home/ubuntu/Desktop/panara","no","no","mono","no","18","no","white","no","yes","768","35","35","/home/ubuntu/Desktop/panara/subject-702.csv","Jazzy James","3.1.3","2.2.1.wav","2.2.3.wav","2.2.3.wav","0","0","NA","0","NA","2922","NA","2922","NA","1041991","space","2","1024","2","48000","-16","experiment","2.2.1.wav","2.2.3.wav","2.2.3.wav","702","even","1278519","1280997","1280497","1279781","NA","NA","1277519","1281714","751","NA","NA","1277516","1284636","NA","1277516","1042744","NA","1277519","753","New experiment","NA","0","0","0","yes","1024"
"undefined","undefined","undefined","undefined","black","no","legacy","0","uniform","undefined","undefined","undefined","36","36","73","36","36","NA","36","36","0","0","0","36","36","0","36","0","NA","36","0","Thu 30 May 2019 10:47:41 AM PDT","500","1000","The main experiment item","yes","NA","ABX_v3.osexp","/home/ubuntu/Desktop/panara","no","no","mono","no","18","no","white","no","yes","768","36","36","/home/ubuntu/Desktop/panara/subject-702.csv","Jazzy James","3.1.3","4.2.1.wav","4.2.1.wav","4.2.3.wav","0","0","NA","0","NA","3156","NA","3156","NA","1041991","space","2","1024","2","48000","-16","experiment","4.2.1.wav","4.2.3.wav","4.2.1.wav","702","even","1285786","1288235","1287735","1287018","NA","NA","1284785","1288990","751","NA","NA","1284783","1292147","NA","1284782","1042744","NA","1284786","753","New experiment","NA","0","0","0","yes","1024"
"undefined","undefined","undefined","undefined","black","no","legacy","0","uniform","undefined","undefined","undefined","37","37","75","37","37","NA","37","37","0","0","0","37","37","0","37","0","NA","37","0","Thu 30 May 2019 10:47:41 AM PDT","500","1000","The main experiment item","yes","NA","ABX_v3.osexp","/home/ubuntu/Desktop/panara","no","no","mono","no","18","no","white","no","yes","768","37","37","/home/ubuntu/Desktop/panara/subject-702.csv","Jazzy James","3.1.3","2.2.1.wav","2.2.1.wav","2.2.3.wav","0","0","NA","0","NA","1254","NA","1254","NA","1041991","space","2","1024","2","48000","-16","experiment","2.2.1.wav","2.2.3.wav","2.2.1.wav","702","even","1293318","1295802","1295302","1294547","NA","NA","1292318","1296525","751","NA","NA","1292316","1297779","NA","1292316","1042744","NA","1292318","753","New experiment","NA","0","0","0","yes","1024"
"undefined","undefined","undefined","undefined","black","no","legacy","0","uniform","undefined","undefined","undefined","38","38","77","38","38","NA","38","38","0","0","0","38","38","0","38","0","NA","38","0","Thu 30 May 2019 10:47:41 AM PDT","500","1000","The main experiment item","yes","NA","ABX_v3.osexp","/home/ubuntu/Desktop/panara","no","no","mono","no","18","no","white","no","yes","768","38","38","/home/ubuntu/Desktop/panara/subject-702.csv","Jazzy James","3.1.3","5.2.1.wav","5.2.1.wav","5.2.3.wav","0","1","NA","1","NA","1410","NA","1410","NA","1041991","space","2","1024","2","48000","-16","experiment","5.2.1.wav","5.2.3.wav","5.2.1.wav","702","even","1298942","1301348","1300848","1300153","NA","NA","1297941","1302065","751","NA","NA","1297938","1303475","NA","1297938","1042744","NA","1297941","753","New experiment","NA","0","0","0","yes","1024"
"undefined","undefined","undefined","undefined","black","no","legacy","0","uniform","undefined","undefined","undefined","39","39","79","39","39","NA","39","39","0","0","0","39","39","0","39","0","NA","39","0","Thu 30 May 2019 10:47:41 AM PDT","500","1000","The main experiment item","yes","NA","ABX_v3.osexp","/home/ubuntu/Desktop/panara","no","no","mono","no","18","no","white","no","yes","768","39","39","/home/ubuntu/Desktop/panara/subject-702.csv","Jazzy James","3.1.3","3.2.3.wav","3.2.5.wav","3.2.5.wav","0","0","NA","0","NA","1017","NA","1017","NA","1041991","space","2","1024","2","48000","-16","experiment","3.2.3.wav","3.2.5.wav","3.2.5.wav","702","even","1304635","1307172","1306672","1305892","NA","NA","1303635","1307953","751","NA","NA","1303632","1308971","NA","1303632","1042744","NA","1303635","753","New experiment","NA","0","0","0","yes","1024"
"undefined","undefined","undefined","undefined","black","no","legacy","0","uniform","undefined","undefined","undefined","40","40","81","40","40","NA","40","40","0","0","0","40","40","0","40","0","NA","40","0","Thu 30 May 2019 10:47:41 AM PDT","500","1000","The main experiment item","yes","NA","ABX_v3.osexp","/home/ubuntu/Desktop/panara","no","no","mono","no","18","no","white","no","yes","768","40","40","/home/ubuntu/Desktop/panara/subject-702.csv","Jazzy James","3.1.3","1.1.3.wav","1.1.5.wav","1.1.5.wav","0","0","NA","0","NA","1125","NA","1125","NA","1041991","space","2","1024","2","48000","-16","experiment","1.1.3.wav","1.1.5.wav","1.1.5.wav","702","even","1310116","1312689","1312189","1311417","NA","NA","1309115","1313501","751","NA","NA","1309113","1314627","NA","1309113","1042744","NA","1309116","753","New experiment","NA","0","0","0","yes","1024"
"undefined","undefined","undefined","undefined","black","no","legacy","0","uniform","undefined","undefined","undefined","41","41","83","41","41","NA","41","41","0","0","0","41","41","0","41","0","NA","41","0","Thu 30 May 2019 10:47:41 AM PDT","500","1000","The main experiment item","yes","NA","ABX_v3.osexp","/home/ubuntu/Desktop/panara","no","no","mono","no","18","no","white","no","yes","768","41","41","/home/ubuntu/Desktop/panara/subject-702.csv","Jazzy James","3.1.3","2.1.3.wav","2.1.3.wav","2.1.5.wav","0","1","NA","1","NA","980","NA","980","NA","1041991","space","2","1024","2","48000","-16","experiment","2.1.3.wav","2.1.5.wav","2.1.3.wav","702","even","1315799","1318291","1317791","1317040","NA","NA","1314798","1319045","751","NA","NA","1314796","1320025","NA","1314796","1042744","NA","1314799","753","New experiment","NA","0","0","0","yes","1024"
"undefined","undefined","undefined","undefined","black","no","legacy","0","uniform","undefined","undefined","undefined","42","42","85","42","42","NA","42","42","0","0","0","42","42","0","42","0","NA","42","0","Thu 30 May 2019 10:47:41 AM PDT","500","1000","The main experiment item","yes","NA","ABX_v3.osexp","/home/ubuntu/Desktop/panara","no","no","mono","no","18","no","white","no","yes","768","42","42","/home/ubuntu/Desktop/panara/subject-702.csv","Jazzy James","3.1.3","3.1.1.wav","3.1.1.wav","3.1.3.wav","0","1","NA","1","NA","1140","NA","1140","NA","1041991","space","2","1024","2","48000","-16","experiment","3.1.1.wav","3.1.3.wav","3.1.1.wav","702","even","1321205","1323731","1323231","1322480","NA","NA","1320205","1324486","751","NA","NA","1320202","1325626","NA","1320202","1042744","NA","1320205","753","New experiment","NA","0","0","0","yes","1024"
"undefined","undefined","undefined","undefined","black","no","legacy","0","uniform","undefined","undefined","undefined","43","43","87","43","43","NA","43","43","0","0","0","43","43","0","43","0","NA","43","0","Thu 30 May 2019 10:47:41 AM PDT","500","1000","The main experiment item","yes","NA","ABX_v3.osexp","/home/ubuntu/Desktop/panara","no","no","mono","no","18","no","white","no","yes","768","43","43","/home/ubuntu/Desktop/panara/subject-702.csv","Jazzy James","3.1.3","5.2.2.wav","5.2.2.wav","5.2.4.wav","0","1","NA","1","NA","2227","NA","2227","NA","1041991","space","2","1024","2","48000","-16","experiment","5.2.2.wav","5.2.4.wav","5.2.2.wav","702","even","1326774","1329165","1328665","1327970","NA","NA","1325773","1329918","751","NA","NA","1325771","1332145","NA","1325771","1042744","NA","1325774","753","New experiment","NA","0","0","0","yes","1024"
"undefined","undefined","undefined","undefined","black","no","legacy","0","uniform","undefined","undefined","undefined","44","44","89","44","44","NA","44","44","0","0","0","44","44","0","44","0","NA","44","0","Thu 30 May 2019 10:47:41 AM PDT","500","1000","The main experiment item","yes","NA","ABX_v3.osexp","/home/ubuntu/Desktop/panara","no","no","mono","no","18","no","white","no","yes","768","44","44","/home/ubuntu/Desktop/panara/subject-702.csv","Jazzy James","3.1.3","2.1.1.wav","2.1.3.wav","2.1.3.wav","0","0","NA","0","NA","2685","NA","2685","NA","1041991","space","2","1024","2","48000","-16","experiment","2.1.1.wav","2.1.3.wav","2.1.3.wav","702","even","1333323","1335834","1335334","1334582","NA","NA","1332323","1336588","751","NA","NA","1332320","1339274","NA","1332320","1042744","NA","1332323","753","New experiment","NA","0","0","0","yes","1024"
"undefined","undefined","undefined","undefined","black","no","legacy","0","uniform","undefined","undefined","undefined","45","45","91","45","45","NA","45","45","0","0","0","45","45","0","45","0","NA","45","0","Thu 30 May 2019 10:47:41 AM PDT","500","1000","The main experiment item","yes","NA","ABX_v3.osexp","/home/ubuntu/Desktop/panara","yes","no","mono","no","18","no","white","no","yes","768","45","45","/home/ubuntu/Desktop/panara/subject-702.csv","Jazzy James","3.1.3","3.1.4.wav","3.1.2.wav","3.1.2.wav","0","0","NA","0","NA","2475","NA","2475","NA","1041991","space","2","1024","2","48000","-16","experiment","3.1.2.wav","3.1.4.wav","3.1.2.wav","702","even","1340435","1342973","1342473","1341693","NA","NA","1339435","1343750","751","NA","NA","1339432","1346225","NA","1339432","1042744","NA","1339435","753","New experiment","NA","0","0","0","yes","1024"
"undefined","undefined","undefined","undefined","black","no","legacy","0","uniform","undefined","undefined","undefined","46","46","93","46","46","NA","46","46","0","0","0","46","46","0","46","0","NA","46","0","Thu 30 May 2019 10:47:41 AM PDT","500","1000","The main experiment item","yes","NA","ABX_v3.osexp","/home/ubuntu/Desktop/panara","yes","no","mono","no","18","no","white","no","yes","768","46","46","/home/ubuntu/Desktop/panara/subject-702.csv","Jazzy James","3.1.3","3.1.5.wav","3.1.5.wav","3.1.3.wav","0","0","NA","0","NA","1669","NA","1669","NA","1041991","space","2","1024","2","48000","-16","experiment","3.1.3.wav","3.1.5.wav","3.1.5.wav","702","even","1347394","1350204","1349704","1348950","NA","NA","1346394","1350956","751","NA","NA","1346391","1352625","NA","1346391","1042744","NA","1346394","753","New experiment","NA","0","0","0","yes","1024"
"undefined","undefined","undefined","undefined","black","no","legacy","0","uniform","undefined","undefined","undefined","47","47","95","47","47","NA","47","47","0","0","0","47","47","0","47","0","NA","47","0","Thu 30 May 2019 10:47:41 AM PDT","500","1000","The main experiment item","yes","NA","ABX_v3.osexp","/home/ubuntu/Desktop/panara","no","no","mono","no","18","no","white","no","yes","768","47","47","/home/ubuntu/Desktop/panara/subject-702.csv","Jazzy James","3.1.3","4.2.3.wav","4.2.5.wav","4.2.5.wav","0","0","NA","0","NA","1255","NA","1255","NA","1041991","space","2","1024","2","48000","-16","experiment","4.2.3.wav","4.2.5.wav","4.2.5.wav","702","even","1353808","1356283","1355783","1355071","NA","NA","1352807","1357001","751","NA","NA","1352805","1358257","NA","1352805","1042744","NA","1352808","753","New experiment","NA","0","0","0","yes","1024"
"undefined","undefined","undefined","undefined","black","no","legacy","0","uniform","undefined","undefined","undefined","48","48","97","48","48","NA","48","48","0","0","0","48","48","0","48","0","NA","48","0","Thu 30 May 2019 10:47:41 AM PDT","500","1000","The main experiment item","yes","NA","ABX_v3.osexp","/home/ubuntu/Desktop/panara","no","no","mono","no","18","no","white","no","yes","768","48","48","/home/ubuntu/Desktop/panara/subject-702.csv","Jazzy James","3.1.3","1.1.2.wav","1.1.2.wav","1.1.4.wav","0","0","NA","0","NA","721","NA","721","NA","1041991","space","2","1024","2","48000","-16","experiment","1.1.2.wav","1.1.4.wav","1.1.2.wav","702","even","1359411","1362004","1361504","1360725","NA","NA","1358410","1362783","751","NA","NA","1358408","1363505","NA","1358408","1042744","NA","1358411","753","New experiment","NA","0","0","0","yes","1024"
"undefined","undefined","undefined","undefined","black","no","legacy","0","uniform","undefined","undefined","undefined","49","49","99","49","49","NA","49","49","0","0","0","49","49","0","49","0","NA","49","0","Thu 30 May 2019 10:47:41 AM PDT","500","1000","The main experiment item","yes","NA","ABX_v3.osexp","/home/ubuntu/Desktop/panara","yes","no","mono","no","18","no","white","no","yes","768","49","49","/home/ubuntu/Desktop/panara/subject-702.csv","Jazzy James","3.1.3","1.2.3.wav","1.2.3.wav","1.2.1.wav","0","0","NA","0","NA","1428","NA","1428","NA","1041991","space","2","1024","2","48000","-16","experiment","1.2.1.wav","1.2.3.wav","1.2.3.wav","702","even","1364660","1367209","1366709","1365934","NA","NA","1363660","1367996","751","NA","NA","1363657","1369425","NA","1363657","1042744","NA","1363660","753","New experiment","NA","0","0","0","yes","1024"
"undefined","undefined","undefined","undefined","black","no","legacy","0","uniform","undefined","undefined","undefined","50","50","101","50","50","NA","50","50","0","0","0","50","50","0","50","0","NA","50","0","Thu 30 May 2019 10:47:41 AM PDT","500","1000","The main experiment item","yes","NA","ABX_v3.osexp","/home/ubuntu/Desktop/panara","no","no","mono","no","18","no","white","no","yes","768","50","50","/home/ubuntu/Desktop/panara/subject-702.csv","Jazzy James","3.1.3","2.2.3.wav","2.2.5.wav","2.2.5.wav","0","0","0","0","NA","1434","17853","1434","NA","1041991","space","2","1024","2","48000","-16","experiment","2.2.3.wav","2.2.5.wav","2.2.5.wav","702","even","1388458","1390915","1390415","1389699","1369602","NA","1387458","1391628","751","NA","NA","1369599","1393063","NA","1369599","1042744","NA","1387458","753","New experiment","NA","0","0","0","yes","1024"
"undefined","undefined","undefined","undefined","black","no","legacy","0","uniform","undefined","undefined","undefined","51","51","103","51","51","NA","51","51","0","0","0","51","51","0","51","0","NA","51","0","Thu 30 May 2019 10:47:41 AM PDT","500","1000","The main experiment item","yes","NA","ABX_v3.osexp","/home/ubuntu/Desktop/panara","yes","no","mono","no","18","no","white","no","yes","768","51","51","/home/ubuntu/Desktop/panara/subject-702.csv","Jazzy James","3.1.3","2.1.3.wav","2.1.1.wav","2.1.1.wav","0","0","0","0","NA","609","17853","609","NA","1041991","space","2","1024","2","48000","-16","experiment","2.1.1.wav","2.1.3.wav","2.1.1.wav","702","even","1394234","1396734","1396234","1395484","1369602","NA","1393234","1397477","751","NA","NA","1393232","1398086","NA","1393232","1042744","NA","1393234","753","New experiment","NA","0","0","0","yes","1024"
"undefined","undefined","undefined","undefined","black","no","legacy","0","uniform","undefined","undefined","undefined","52","52","105","52","52","NA","52","52","0","0","0","52","52","0","52","0","NA","52","0","Thu 30 May 2019 10:47:41 AM PDT","500","1000","The main experiment item","yes","NA","ABX_v3.osexp","/home/ubuntu/Desktop/panara","no","no","mono","no","18","no","white","no","yes","768","52","52","/home/ubuntu/Desktop/panara/subject-702.csv","Jazzy James","3.1.3","4.1.3.wav","4.1.3.wav","4.1.5.wav","0","1","0","1","NA","938","17853","938","NA","1041991","space","2","1024","2","48000","-16","experiment","4.1.3.wav","4.1.5.wav","4.1.3.wav","702","even","1399269","1401742","1401242","1400526","1369602","NA","1398268","1402461","751","NA","NA","1398266","1403399","NA","1398266","1042744","NA","1398269","753","New experiment","NA","0","0","0","yes","1024"
"undefined","undefined","undefined","undefined","black","no","legacy","0","uniform","undefined","undefined","undefined","53","53","107","53","53","NA","53","53","0","0","0","53","53","0","53","0","NA","53","0","Thu 30 May 2019 10:47:41 AM PDT","500","1000","The main experiment item","yes","NA","ABX_v3.osexp","/home/ubuntu/Desktop/panara","no","no","mono","no","18","no","white","no","yes","768","53","53","/home/ubuntu/Desktop/panara/subject-702.csv","Jazzy James","3.1.3","4.1.2.wav","4.1.2.wav","4.1.4.wav","0","1","0","1","NA","864","17853","864","NA","1041991","space","2","1024","2","48000","-16","experiment","4.1.2.wav","4.1.4.wav","4.1.2.wav","702","even","1404582","1407055","1406555","1405844","1369602","NA","1403582","1407782","751","NA","NA","1403580","1408648","NA","1403579","1042744","NA","1403582","753","New experiment","NA","0","0","0","yes","1024"
"undefined","undefined","undefined","undefined","black","no","legacy","0","uniform","undefined","undefined","undefined","54","54","109","54","54","NA","54","54","0","0","0","54","54","0","54","0","NA","54","0","Thu 30 May 2019 10:47:41 AM PDT","500","1000","The main experiment item","yes","NA","ABX_v3.osexp","/home/ubuntu/Desktop/panara","yes","no","mono","no","18","no","white","no","yes","768","0","53","/home/ubuntu/Desktop/panara/subject-702.csv","Jazzy James","3.1.3","4.2.3.wav","4.2.1.wav","3.2.1.wav","0","0","0","0","NA","972","17853","972","NA","1041991","space","2","1024","2","48000","-16","experiment","3.2.1.wav","4.2.3.wav","4.2.1.wav","702","even","1409845","1412298","1411798","1411095","1369602","NA","1408845","1413049","751","NA","NA","1408843","1414022","1408774","1408843","1042744","NA","1408845","753","New experiment","NA","0","0","0","yes","1024"
"undefined","undefined","undefined","undefined","black","no","legacy","0","uniform","undefined","undefined","undefined","55","55","111","55","55","NA","55","55","0","0","0","55","55","0","55","0","NA","55","0","Thu 30 May 2019 10:47:41 AM PDT","500","1000","The main experiment item","yes","NA","ABX_v3.osexp","/home/ubuntu/Desktop/panara","yes","no","mono","no","18","no","white","no","yes","768","1","53","/home/ubuntu/Desktop/panara/subject-702.csv","Jazzy James","3.1.3","4.1.5.wav","4.1.3.wav","4.2.3.wav","0","0","0","0","NA","1137","17853","1137","NA","1041991","space","2","1024","2","48000","-16","experiment","4.2.3.wav","4.1.5.wav","4.1.3.wav","702","even","1415227","1417683","1417182","1416467","1369602","NA","1414227","1418421","751","NA","NA","1414224","1419559","1408774","1414224","1042744","NA","1414227","753","New experiment","NA","0","0","0","yes","1024"
"undefined","undefined","undefined","undefined","black","no","legacy","0","uniform","undefined","undefined","undefined","56","56","113","56","56","NA","56","56","0","0","0","56","56","0","56","0","NA","56","0","Thu 30 May 2019 10:47:41 AM PDT","500","1000","The main experiment item","yes","NA","ABX_v3.osexp","/home/ubuntu/Desktop/panara","no","no","mono","no","18","no","white","no","yes","768","2","53","/home/ubuntu/Desktop/panara/subject-702.csv","Jazzy James","3.1.3","1.1.2.wav","2.1.2.wav","2.1.4.wav","0","1","0","1","NA","1366","17853","1366","NA","1041991","space","2","1024","2","48000","-16","experiment","1.1.2.wav","2.1.4.wav","2.1.2.wav","702","even","1420740","1423275","1422775","1422030","1369602","NA","1419740","1424032","751","NA","NA","1419737","1425398","1408774","1419737","1042744","NA","1419740","753","New experiment","NA","0","0","0","yes","1024"
"undefined","undefined","undefined","undefined","black","no","legacy","0","uniform","undefined","undefined","undefined","57","57","115","57","57","NA","57","57","0","0","0","57","57","0","57","0","NA","57","0","Thu 30 May 2019 10:47:41 AM PDT","500","1000","The main experiment item","yes","NA","ABX_v3.osexp","/home/ubuntu/Desktop/panara","yes","no","mono","no","18","no","white","no","yes","768","3","53","/home/ubuntu/Desktop/panara/subject-702.csv","Jazzy James","3.1.3","4.2.3.wav","4.2.1.wav","2.2.1.wav","0","0","0","0","NA","2263","17853","2263","NA","1041991","space","2","1024","2","48000","-16","experiment","2.2.1.wav","4.2.3.wav","4.2.1.wav","702","even","1426554","1429079","1428579","1427814","1369602","NA","1425553","1429797","751","NA","NA","1425551","1432061","1408774","1425550","1042744","NA","1425553","753","New experiment","NA","0","0","0","yes","1024"
"undefined","undefined","undefined","undefined","black","no","legacy","0","uniform","undefined","undefined","undefined","58","58","117","58","58","NA","58","58","0","0","0","58","58","0","58","0","NA","58","0","Thu 30 May 2019 10:47:41 AM PDT","500","1000","The main experiment item","yes","NA","ABX_v3.osexp","/home/ubuntu/Desktop/panara","yes","no","mono","no","18","no","white","no","yes","768","4","53","/home/ubuntu/Desktop/panara/subject-702.csv","Jazzy James","3.1.3","4.2.3.wav","4.2.1.wav","4.1.1.wav","0","0","0","0","NA","1917","17853","1917","NA","1041991","space","2","1024","2","48000","-16","experiment","4.1.1.wav","4.2.3.wav","4.2.1.wav","702","even","1433223","1435734","1435234","1434474","1369602","NA","1432223","1436448","751","NA","NA","1432221","1438366","1408774","1432221","1042744","NA","1432223","753","New experiment","NA","0","0","0","yes","1024"
"undefined","undefined","undefined","undefined","black","no","legacy","0","uniform","undefined","undefined","undefined","59","59","119","59","59","NA","59","59","0","0","0","59","59","0","59","0","NA","59","0","Thu 30 May 2019 10:47:41 AM PDT","500","1000","The main experiment item","yes","NA","ABX_v3.osexp","/home/ubuntu/Desktop/panara","yes","no","mono","no","18","no","white","no","yes","768","5","53","/home/ubuntu/Desktop/panara/subject-702.csv","Jazzy James","3.1.3","3.2.3.wav","3.2.1.wav","3.1.1.wav","0","1","0","1","NA","1752","17853","1752","NA","1041991","space","2","1024","2","48000","-16","experiment","3.1.1.wav","3.2.3.wav","3.2.1.wav","702","even","1439531","1442031","1441531","1440786","1369602","NA","1438531","1442789","751","NA","NA","1438528","1444542","1408774","1438528","1042744","NA","1438531","753","New experiment","NA","0","0","0","yes","1024"
"undefined","undefined","undefined","undefined","black","no","legacy","0","uniform","undefined","undefined","undefined","60","60","121","60","60","NA","60","60","0","0","0","60","60","0","60","0","NA","60","0","Thu 30 May 2019 10:47:41 AM PDT","500","1000","The main experiment item","yes","NA","ABX_v3.osexp","/home/ubuntu/Desktop/panara","yes","no","mono","no","18","no","white","no","yes","768","6","53","/home/ubuntu/Desktop/panara/subject-702.csv","Jazzy James","3.1.3","3.1.4.wav","1.1.4.wav","1.1.2.wav","0","0","0","0","NA","969","17853","969","NA","1041991","space","2","1024","2","48000","-16","experiment","1.1.2.wav","3.1.4.wav","1.1.4.wav","702","even","1445715","1448274","1447774","1446998","1369602","NA","1444715","1449059","751","NA","NA","1444713","1450028","1408774","1444713","1042744","NA","1444715","753","New experiment","NA","0","0","0","yes","1024"
"undefined","undefined","undefined","undefined","black","no","legacy","0","uniform","undefined","undefined","undefined","61","61","123","61","61","NA","61","61","0","0","0","61","61","0","61","0","NA","61","0","Thu 30 May 2019 10:47:41 AM PDT","500","1000","The main experiment item","yes","NA","ABX_v3.osexp","/home/ubuntu/Desktop/panara","yes","no","mono","no","18","no","white","no","yes","768","7","53","/home/ubuntu/Desktop/panara/subject-702.csv","Jazzy James","3.1.3","4.1.3.wav","4.1.1.wav","4.2.1.wav","0","0","0","0","NA","3322","17853","3322","NA","1041991","space","2","1024","2","48000","-16","experiment","4.2.1.wav","4.1.3.wav","4.1.1.wav","702","even","1451209","1453670","1453170","1452459","1369602","NA","1450209","1454394","751","NA","NA","1450207","1457717","1408774","1450206","1042744","NA","1450209","753","New experiment","NA","0","0","0","yes","1024"
"undefined","undefined","undefined","undefined","black","no","legacy","0","uniform","undefined","undefined","undefined","62","62","125","62","62","NA","62","62","0","0","0","62","62","0","62","0","NA","62","0","Thu 30 May 2019 10:47:41 AM PDT","500","1000","The main experiment item","yes","NA","ABX_v3.osexp","/home/ubuntu/Desktop/panara","yes","no","mono","no","18","no","white","no","yes","768","8","53","/home/ubuntu/Desktop/panara/subject-702.csv","Jazzy James","3.1.3","4.1.3.wav","4.2.3.wav","4.2.1.wav","0","0","0","0","NA","2735","17853","2735","NA","1041991","space","2","1024","2","48000","-16","experiment","4.2.1.wav","4.1.3.wav","4.2.3.wav","702","even","1458883","1461354","1460854","1460087","1369602","NA","1457883","1462109","751","NA","NA","1457880","1464845","1408774","1457880","1042744","NA","1457883","753","New experiment","NA","0","0","0","yes","1024"
"undefined","undefined","undefined","undefined","black","no","legacy","0","uniform","undefined","undefined","undefined","63","63","127","63","63","NA","63","63","0","0","0","63","63","0","63","0","NA","63","0","Thu 30 May 2019 10:47:41 AM PDT","500","1000","The main experiment item","yes","NA","ABX_v3.osexp","/home/ubuntu/Desktop/panara","no","no","mono","no","18","no","white","no","yes","768","9","53","/home/ubuntu/Desktop/panara/subject-702.csv","Jazzy James","3.1.3","4.1.3.wav","4.2.3.wav","4.2.5.wav","0","1","0","1","NA","1436","17853","1436","NA","1041991","space","2","1024","2","48000","-16","experiment","4.1.3.wav","4.2.5.wav","4.2.3.wav","702","even","1466024","1468525","1468025","1467276","1369602","NA","1465024","1469280","751","NA","NA","1465022","1470717","1408774","1465022","1042744","NA","1465024","753","New experiment","NA","0","0","0","yes","1024"
"undefined","undefined","undefined","undefined","black","no","legacy","0","uniform","undefined","undefined","undefined","64","64","129","64","64","NA","64","64","0","0","0","64","64","0","64","0","NA","64","0","Thu 30 May 2019 10:47:41 AM PDT","500","1000","The main experiment item","yes","NA","ABX_v3.osexp","/home/ubuntu/Desktop/panara","yes","no","mono","no","18","no","white","no","yes","768","10","53","/home/ubuntu/Desktop/panara/subject-702.csv","Jazzy James","3.1.3","3.1.5.wav","4.1.5.wav","4.1.3.wav","0","0","0","0","NA","730","17853","730","NA","1041991","space","2","1024","2","48000","-16","experiment","4.1.3.wav","3.1.5.wav","4.1.5.wav","702","even","1471890","1474406","1473906","1473168","1369602","NA","1470889","1475130","751","NA","NA","1470887","1475860","1408774","1470887","1042744","NA","1470890","753","New experiment","NA","0","0","0","yes","1024"
"undefined","undefined","undefined","undefined","black","no","legacy","0","uniform","undefined","undefined","undefined","65","65","131","65","65","NA","65","65","0","0","0","65","65","0","65","0","NA","65","0","Thu 30 May 2019 10:47:41 AM PDT","500","1000","The main experiment item","yes","NA","ABX_v3.osexp","/home/ubuntu/Desktop/panara","no","no","mono","no","18","no","white","no","yes","768","11","53","/home/ubuntu/Desktop/panara/subject-702.csv","Jazzy James","3.1.3","4.1.1.wav","3.1.1.wav","3.1.3.wav","0","0","0","0","NA","812","17853","812","NA","1041991","space","2","1024","2","48000","-16","experiment","4.1.1.wav","3.1.3.wav","3.1.1.wav","702","even","1477030","1479486","1478986","1478250","1369602","NA","1476029","1480239","751","NA","NA","1476026","1481051","1408774","1476026","1042744","NA","1476030","753","New experiment","NA","0","0","0","yes","1024"
"undefined","undefined","undefined","undefined","black","no","legacy","0","uniform","undefined","undefined","undefined","66","66","133","66","66","NA","66","66","0","0","0","66","66","0","66","0","NA","66","0","Thu 30 May 2019 10:47:41 AM PDT","500","1000","The main experiment item","yes","NA","ABX_v3.osexp","/home/ubuntu/Desktop/panara","no","no","mono","no","18","no","white","no","yes","768","12","53","/home/ubuntu/Desktop/panara/subject-702.csv","Jazzy James","3.1.3","1.2.3.wav","1.2.5.wav","2.2.5.wav","0","1","0","1","NA","1084","17853","1084","NA","1041991","space","2","1024","2","48000","-16","experiment","1.2.3.wav","2.2.5.wav","1.2.5.wav","702","even","1482221","1484768","1484268","1483489","1369602","NA","1481221","1485495","751","NA","NA","1481218","1486580","1408774","1481218","1042744","NA","1481221","753","New experiment","NA","0","0","0","yes","1024"
"undefined","undefined","undefined","undefined","black","no","legacy","0","uniform","undefined","undefined","undefined","67","67","135","67","67","NA","67","67","0","0","0","67","67","0","67","0","NA","67","0","Thu 30 May 2019 10:47:41 AM PDT","500","1000","The main experiment item","yes","NA","ABX_v3.osexp","/home/ubuntu/Desktop/panara","no","no","mono","no","18","no","white","no","yes","768","13","53","/home/ubuntu/Desktop/panara/subject-702.csv","Jazzy James","3.1.3","3.1.2.wav","3.1.4.wav","1.1.4.wav","0","1","0","1","NA","1024","17853","1024","NA","1041991","space","2","1024","2","48000","-16","experiment","3.1.2.wav","1.1.4.wav","3.1.4.wav","702","even","1487761","1490336","1489836","1489061","1369602","NA","1486761","1491122","751","NA","NA","1486758","1492147","1408774","1486758","1042744","NA","1486761","753","New experiment","NA","0","0","0","yes","1024"
"undefined","undefined","undefined","undefined","black","no","legacy","0","uniform","undefined","undefined","undefined","68","68","137","68","68","NA","68","68","0","0","0","68","68","0","68","0","NA","68","0","Thu 30 May 2019 10:47:41 AM PDT","500","1000","The main experiment item","yes","NA","ABX_v3.osexp","/home/ubuntu/Desktop/panara","yes","no","mono","no","18","no","white","no","yes","768","14","53","/home/ubuntu/Desktop/panara/subject-702.csv","Jazzy James","3.1.3","2.2.3.wav","1.2.3.wav","1.2.1.wav","0","0","0","0","NA","2466","17853","2466","NA","1041991","space","2","1024","2","48000","-16","experiment","1.2.1.wav","2.2.3.wav","1.2.3.wav","702","even","1493310","1495845","1495345","1494560","1369602","NA","1492310","1496632","751","NA","NA","1492307","1499099","1408774","1492307","1042744","NA","1492310","753","New experiment","NA","0","0","0","yes","1024"
"undefined","undefined","undefined","undefined","black","no","legacy","0","uniform","undefined","undefined","undefined","69","69","139","69","69","NA","69","69","0","0","0","69","69","0","69","0","NA","69","0","Thu 30 May 2019 10:47:41 AM PDT","500","1000","The main experiment item","yes","NA","ABX_v3.osexp","/home/ubuntu/Desktop/panara","yes","no","mono","no","18","no","white","no","yes","768","15","53","/home/ubuntu/Desktop/panara/subject-702.csv","Jazzy James","3.1.3","2.2.3.wav","2.2.1.wav","4.2.1.wav","0","1","0","1","NA","1028","17853","1028","NA","1041991","space","2","1024","2","48000","-16","experiment","4.2.1.wav","2.2.3.wav","2.2.1.wav","702","even","1500298","1502756","1502255","1501540","1369602","NA","1499298","1503479","751","NA","NA","1499295","1504507","1408774","1499295","1042744","NA","1499298","753","New experiment","NA","0","0","0","yes","1024"
"undefined","undefined","undefined","undefined","black","no","legacy","0","uniform","undefined","undefined","undefined","70","70","141","70","70","NA","70","70","0","0","0","70","70","0","70","0","NA","70","0","Thu 30 May 2019 10:47:41 AM PDT","500","1000","The main experiment item","yes","NA","ABX_v3.osexp","/home/ubuntu/Desktop/panara","yes","no","mono","no","18","no","white","no","yes","768","16","53","/home/ubuntu/Desktop/panara/subject-702.csv","Jazzy James","3.1.3","4.1.5.wav","3.1.5.wav","3.1.3.wav","0","0","0","0","NA","3842","17853","3842","NA","1041991","space","2","1024","2","48000","-16","experiment","3.1.3.wav","4.1.5.wav","3.1.5.wav","702","even","1505672","1508192","1507692","1506917","1369602","NA","1504671","1508944","751","NA","NA","1504668","1512787","1408774","1504668","1042744","NA","1504672","753","New experiment","NA","0","0","0","yes","1024"
"undefined","undefined","undefined","undefined","black","no","legacy","0","uniform","undefined","undefined","undefined","71","71","143","71","71","NA","71","71","0","0","0","71","71","0","71","0","NA","71","0","Thu 30 May 2019 10:47:41 AM PDT","500","1000","The main experiment item","yes","NA","ABX_v3.osexp","/home/ubuntu/Desktop/panara","no","no","mono","no","18","no","white","no","yes","768","17","53","/home/ubuntu/Desktop/panara/subject-702.csv","Jazzy James","3.1.3","4.1.2.wav","3.1.2.wav","3.1.4.wav","0","0","0","0","NA","1367","17853","1367","NA","1041991","space","2","1024","2","48000","-16","experiment","4.1.2.wav","3.1.4.wav","3.1.2.wav","702","even","1513928","1516447","1515947","1515177","1369602","NA","1512927","1517235","751","NA","NA","1512925","1518603","1408774","1512925","1042744","NA","1512927","753","New experiment","NA","0","0","0","yes","1024"
"undefined","undefined","undefined","undefined","black","no","legacy","0","uniform","undefined","undefined","undefined","72","72","145","72","72","NA","72","72","0","0","0","72","72","0","72","0","NA","72","0","Thu 30 May 2019 10:47:41 AM PDT","500","1000","The main experiment item","yes","NA","ABX_v3.osexp","/home/ubuntu/Desktop/panara","no","no","mono","no","18","no","white","no","yes","768","18","53","/home/ubuntu/Desktop/panara/subject-702.csv","Jazzy James","3.1.3","3.2.1.wav","3.2.3.wav","3.1.3.wav","0","0","0","0","NA","952","17853","952","NA","1041991","space","2","1024","2","48000","-16","experiment","3.2.1.wav","3.1.3.wav","3.2.3.wav","702","even","1519752","1522232","1521732","1521001","1369602","NA","1518752","1522994","751","NA","NA","1518750","1523947","1408774","1518750","1042744","NA","1518752","753","New experiment","NA","0","0","0","yes","1024"
"undefined","undefined","undefined","undefined","black","no","legacy","0","uniform","undefined","undefined","undefined","73","73","147","73","73","NA","73","73","0","0","0","73","73","0","73","0","NA","73","0","Thu 30 May 2019 10:47:41 AM PDT","500","1000","The main experiment item","yes","NA","ABX_v3.osexp","/home/ubuntu/Desktop/panara","yes","no","mono","no","18","no","white","no","yes","768","19","53","/home/ubuntu/Desktop/panara/subject-702.csv","Jazzy James","3.1.3","1.1.5.wav","1.1.3.wav","3.1.3.wav","0","1","0","1","NA","939","17853","939","NA","1041991","space","2","1024","2","48000","-16","experiment","3.1.3.wav","1.1.5.wav","1.1.3.wav","702","even","1525101","1527651","1527150","1526376","1369602","NA","1524101","1528399","751","NA","NA","1524099","1529338","1408774","1524099","1042744","NA","1524101","753","New experiment","NA","0","0","0","yes","1024"
"undefined","undefined","undefined","undefined","black","no","legacy","0","uniform","undefined","undefined","undefined","74","74","149","74","74","NA","74","74","0","0","0","74","74","0","74","0","NA","74","0","Thu 30 May 2019 10:47:41 AM PDT","500","1000","The main experiment item","yes","NA","ABX_v3.osexp","/home/ubuntu/Desktop/panara","yes","no","mono","no","18","no","white","no","yes","768","20","53","/home/ubuntu/Desktop/panara/subject-702.csv","Jazzy James","3.1.3","3.1.5.wav","3.1.3.wav","1.1.3.wav","0","1","0","1","NA","1179","17853","1179","NA","1041991","space","2","1024","2","48000","-16","experiment","1.1.3.wav","3.1.5.wav","3.1.3.wav","702","even","1530508","1533057","1532557","1531807","1369602","NA","1529508","1533870","751","NA","NA","1529505","1535049","1408774","1529505","1042744","NA","1529508","753","New experiment","NA","0","0","0","yes","1024"
"undefined","undefined","undefined","undefined","black","no","legacy","0","uniform","undefined","undefined","undefined","75","75","151","75","75","NA","75","75","0","0","0","75","75","0","75","0","NA","75","0","Thu 30 May 2019 10:47:41 AM PDT","500","1000","The main experiment item","yes","NA","ABX_v3.osexp","/home/ubuntu/Desktop/panara","yes","no","mono","no","18","no","white","no","yes","768","21","53","/home/ubuntu/Desktop/panara/subject-702.csv","Jazzy James","3.1.3","1.1.3.wav","1.1.1.wav","2.1.1.wav","0","0","0","0","NA","1015","17853","1015","NA","1041991","space","2","1024","2","48000","-16","experiment","2.1.1.wav","1.1.3.wav","1.1.1.wav","702","even","1536221","1538813","1538313","1537502","1369602","NA","1535221","1539546","751","NA","NA","1535218","1540562","1408774","1535218","1042744","NA","1535221","753","New experiment","NA","0","0","0","yes","1024"
"undefined","undefined","undefined","undefined","black","no","legacy","0","uniform","undefined","undefined","undefined","76","76","153","76","76","NA","76","76","0","0","0","76","76","0","76","0","NA","76","0","Thu 30 May 2019 10:47:41 AM PDT","500","1000","The main experiment item","yes","NA","ABX_v3.osexp","/home/ubuntu/Desktop/panara","no","no","mono","no","18","no","white","no","yes","768","22","53","/home/ubuntu/Desktop/panara/subject-702.csv","Jazzy James","3.1.3","2.1.2.wav","2.2.2.wav","2.2.4.wav","0","0","0","0","NA","3278","17853","3278","NA","1041991","space","2","1024","2","48000","-16","experiment","2.1.2.wav","2.2.4.wav","2.2.2.wav","702","even","1541727","1544244","1543744","1542994","1369602","NA","1540727","1544971","751","NA","NA","1540724","1548250","1408774","1540724","1042744","NA","1540727","753","New experiment","NA","0","0","0","yes","1024"
"undefined","undefined","undefined","undefined","black","no","legacy","0","uniform","undefined","undefined","undefined","77","77","155","77","77","NA","77","77","0","0","0","77","77","0","77","0","NA","77","0","Thu 30 May 2019 10:47:41 AM PDT","500","1000","The main experiment item","yes","NA","ABX_v3.osexp","/home/ubuntu/Desktop/panara","no","no","mono","no","18","no","white","no","yes","768","23","53","/home/ubuntu/Desktop/panara/subject-702.csv","Jazzy James","3.1.3","3.2.1.wav","3.1.1.wav","3.1.3.wav","0","0","0","0","NA","2805","17853","2805","NA","1041991","space","2","1024","2","48000","-16","experiment","3.2.1.wav","3.1.3.wav","3.1.1.wav","702","even","1549417","1551927","1551427","1550673","1369602","NA","1548417","1552676","751","NA","NA","1548414","1555481","1408774","1548414","1042744","NA","1548417","753","New experiment","NA","0","0","0","yes","1024"
"undefined","undefined","undefined","undefined","black","no","legacy","0","uniform","undefined","undefined","undefined","78","78","157","78","78","NA","78","78","0","0","0","78","78","0","78","0","NA","78","0","Thu 30 May 2019 10:47:41 AM PDT","500","1000","The main experiment item","yes","NA","ABX_v3.osexp","/home/ubuntu/Desktop/panara","yes","no","mono","no","18","no","white","no","yes","768","24","53","/home/ubuntu/Desktop/panara/subject-702.csv","Jazzy James","3.1.3","2.2.4.wav","2.1.4.wav","2.1.2.wav","0","1","0","1","NA","2002","17853","2002","NA","1041991","space","2","1024","2","48000","-16","experiment","2.1.2.wav","2.2.4.wav","2.1.4.wav","702","even","1556632","1559120","1558620","1557884","1369602","NA","1555632","1559879","751","NA","NA","1555629","1561881","1408774","1555629","1042744","NA","1555632","753","New experiment","NA","0","0","0","yes","1024"
"undefined","undefined","undefined","undefined","black","no","legacy","0","uniform","undefined","undefined","undefined","79","79","159","79","79","NA","79","79","0","0","0","79","79","0","79","0","NA","79","0","Thu 30 May 2019 10:47:41 AM PDT","500","1000","The main experiment item","yes","NA","ABX_v3.osexp","/home/ubuntu/Desktop/panara","no","no","mono","no","18","no","white","no","yes","768","25","53","/home/ubuntu/Desktop/panara/subject-702.csv","Jazzy James","3.1.3","2.1.1.wav","2.1.3.wav","1.1.3.wav","0","0","0","0","NA","857","17853","857","NA","1041991","space","2","1024","2","48000","-16","experiment","2.1.1.wav","1.1.3.wav","2.1.3.wav","702","even","1563040","1565541","1565041","1564296","1369602","NA","1562040","1566359","751","NA","NA","1562037","1567217","1408774","1562037","1042744","NA","1562040","753","New experiment","NA","0","0","0","yes","1024"
"undefined","undefined","undefined","undefined","black","no","legacy","0","uniform","undefined","undefined","undefined","80","80","161","80","80","NA","80","80","0","0","0","80","80","0","80","0","NA","80","0","Thu 30 May 2019 10:47:41 AM PDT","500","1000","The main experiment item","yes","NA","ABX_v3.osexp","/home/ubuntu/Desktop/panara","no","no","mono","no","18","no","white","no","yes","768","26","53","/home/ubuntu/Desktop/panara/subject-702.csv","Jazzy James","3.1.3","2.2.2.wav","2.2.4.wav","2.1.4.wav","0","0","0","0","NA","756","17853","756","NA","1041991","space","2","1024","2","48000","-16","experiment","2.2.2.wav","2.1.4.wav","2.2.4.wav","702","even","1568367","1570825","1570325","1569612","1369602","NA","1567366","1571572","751","NA","NA","1567364","1572329","1408774","1567364","1042744","NA","1567367","753","New experiment","NA","0","0","0","yes","1024"
"undefined","undefined","undefined","undefined","black","no","legacy","0","uniform","undefined","undefined","undefined","81","81","163","81","81","NA","81","81","0","0","0","81","81","0","81","0","NA","81","0","Thu 30 May 2019 10:47:41 AM PDT","500","1000","The main experiment item","yes","NA","ABX_v3.osexp","/home/ubuntu/Desktop/panara","no","no","mono","no","18","no","white","no","yes","768","27","53","/home/ubuntu/Desktop/panara/subject-702.csv","Jazzy James","3.1.3","2.1.1.wav","2.1.3.wav","4.1.3.wav","0","1","0","1","NA","1033","17853","1033","NA","1041991","space","2","1024","2","48000","-16","experiment","2.1.1.wav","4.1.3.wav","2.1.3.wav","702","even","1573457","1575948","1575448","1574698","1369602","NA","1572456","1576663","751","NA","NA","1572454","1577697","1408774","1572454","1042744","NA","1572457","753","New experiment","NA","0","0","0","yes","1024"
"undefined","undefined","undefined","undefined","black","no","legacy","0","uniform","undefined","undefined","undefined","82","82","165","82","82","NA","82","82","0","0","0","82","82","0","82","0","NA","82","0","Thu 30 May 2019 10:47:41 AM PDT","500","1000","The main experiment item","yes","NA","ABX_v3.osexp","/home/ubuntu/Desktop/panara","no","no","mono","no","18","no","white","no","yes","768","28","53","/home/ubuntu/Desktop/panara/subject-702.csv","Jazzy James","3.1.3","4.1.1.wav","2.1.1.wav","2.1.3.wav","0","0","0","0","NA","1519","17853","1519","NA","1041991","space","2","1024","2","48000","-16","experiment","4.1.1.wav","2.1.3.wav","2.1.1.wav","702","even","1578866","1581350","1580850","1580103","1369602","NA","1577865","1582105","751","NA","NA","1577862","1583624","1408774","1577862","1042744","NA","1577866","753","New experiment","NA","0","0","0","yes","1024"
"undefined","undefined","undefined","undefined","black","no","legacy","0","uniform","undefined","undefined","undefined","83","83","167","83","83","NA","83","83","0","0","0","83","83","0","83","0","NA","83","0","Thu 30 May 2019 10:47:41 AM PDT","500","1000","The main experiment item","yes","NA","ABX_v3.osexp","/home/ubuntu/Desktop/panara","no","no","mono","no","18","no","white","no","yes","768","29","53","/home/ubuntu/Desktop/panara/subject-702.csv","Jazzy James","3.1.3","1.2.3.wav","1.1.3.wav","1.1.5.wav","0","1","0","1","NA","1509","17853","1509","NA","1041991","space","2","1024","2","48000","-16","experiment","1.2.3.wav","1.1.5.wav","1.1.3.wav","702","even","1584795","1587399","1586899","1586090","1369602","NA","1583795","1588187","751","NA","NA","1583792","1589696","1408774","1583792","1042744","NA","1583795","753","New experiment","NA","0","0","0","yes","1024"
"undefined","undefined","undefined","undefined","black","no","legacy","0","uniform","undefined","undefined","undefined","84","84","169","84","84","NA","84","84","0","0","0","84","84","0","84","0","NA","84","0","Thu 30 May 2019 10:47:41 AM PDT","500","1000","The main experiment item","yes","NA","ABX_v3.osexp","/home/ubuntu/Desktop/panara","yes","no","mono","no","18","no","white","no","yes","768","30","53","/home/ubuntu/Desktop/panara/subject-702.csv","Jazzy James","3.1.3","4.1.3.wav","4.1.1.wav","2.1.1.wav","0","1","0","1","NA","972","17853","972","NA","1041991","space","2","1024","2","48000","-16","experiment","2.1.1.wav","4.1.3.wav","4.1.1.wav","702","even","1590856","1593287","1592787","1592076","1369602","NA","1589856","1594034","751","NA","NA","1589853","1595008","1408774","1589853","1042744","NA","1589856","753","New experiment","NA","0","0","0","yes","1024"
"undefined","undefined","undefined","undefined","black","no","legacy","0","uniform","undefined","undefined","undefined","85","85","171","85","85","NA","85","85","0","0","0","85","85","0","85","0","NA","85","0","Thu 30 May 2019 10:47:41 AM PDT","500","1000","The main experiment item","yes","NA","ABX_v3.osexp","/home/ubuntu/Desktop/panara","no","no","mono","no","18","no","white","no","yes","768","31","53","/home/ubuntu/Desktop/panara/subject-702.csv","Jazzy James","3.1.3","4.2.3.wav","4.2.5.wav","3.2.5.wav","0","0","0","0","NA","996","17853","996","NA","1041991","space","2","1024","2","48000","-16","experiment","4.2.3.wav","3.2.5.wav","4.2.5.wav","702","even","1596185","1598693","1598193","1597429","1369602","NA","1595185","1599467","751","NA","NA","1595182","1600464","1408774","1595182","1042744","NA","1595185","753","New experiment","NA","0","0","0","yes","1024"
"undefined","undefined","undefined","undefined","black","no","legacy","0","uniform","undefined","undefined","undefined","86","86","173","86","86","NA","86","86","0","0","0","86","86","0","86","0","NA","86","0","Thu 30 May 2019 10:47:41 AM PDT","500","1000","The main experiment item","yes","NA","ABX_v3.osexp","/home/ubuntu/Desktop/panara","no","no","mono","no","18","no","white","no","yes","768","32","53","/home/ubuntu/Desktop/panara/subject-702.csv","Jazzy James","3.1.3","4.1.3.wav","2.1.3.wav","2.1.5.wav","0","0","0","0","NA","2979","17853","2979","NA","1041991","space","2","1024","2","48000","-16","experiment","4.1.3.wav","2.1.5.wav","2.1.3.wav","702","even","1601606","1604116","1603616","1602869","1369602","NA","1600606","1604868","751","NA","NA","1600604","1607848","1408774","1600604","1042744","NA","1600606","753","New experiment","NA","0","0","0","yes","1024"
"undefined","undefined","undefined","undefined","black","no","legacy","0","uniform","undefined","undefined","undefined","87","87","175","87","87","NA","87","87","0","0","0","87","87","0","87","0","NA","87","0","Thu 30 May 2019 10:47:41 AM PDT","500","1000","The main experiment item","yes","NA","ABX_v3.osexp","/home/ubuntu/Desktop/panara","yes","no","mono","no","18","no","white","no","yes","768","33","53","/home/ubuntu/Desktop/panara/subject-702.csv","Jazzy James","3.1.3","2.2.3.wav","2.1.3.wav","2.1.1.wav","0","0","0","0","NA","1276","17853","1276","NA","1041991","space","2","1024","2","48000","-16","experiment","2.1.1.wav","2.2.3.wav","2.1.3.wav","702","even","1608999","1611493","1610993","1610226","1369602","NA","1607998","1612227","751","NA","NA","1607995","1613503","1408774","1607995","1042744","NA","1607999","753","New experiment","NA","0","0","0","yes","1024"
"undefined","undefined","undefined","undefined","black","no","legacy","0","uniform","undefined","undefined","undefined","88","88","177","88","88","NA","88","88","0","0","0","88","88","0","88","0","NA","88","0","Thu 30 May 2019 10:47:41 AM PDT","500","1000","The main experiment item","yes","NA","ABX_v3.osexp","/home/ubuntu/Desktop/panara","no","no","mono","no","18","no","white","no","yes","768","34","53","/home/ubuntu/Desktop/panara/subject-702.csv","Jazzy James","3.1.3","2.1.3.wav","2.2.3.wav","2.2.5.wav","0","1","0","1","NA","712","17853","712","NA","1041991","space","2","1024","2","48000","-16","experiment","2.1.3.wav","2.2.5.wav","2.2.3.wav","702","even","1614671","1617179","1616679","1615924","1369602","NA","1613670","1617911","751","NA","NA","1613668","1618623","1408774","1613668","1042744","NA","1613671","753","New experiment","NA","0","0","0","yes","1024"
"undefined","undefined","undefined","undefined","black","no","legacy","0","uniform","undefined","undefined","undefined","89","89","179","89","89","NA","89","89","0","0","0","89","89","0","89","0","NA","89","0","Thu 30 May 2019 10:47:41 AM PDT","500","1000","The main experiment item","yes","NA","ABX_v3.osexp","/home/ubuntu/Desktop/panara","no","no","mono","no","18","no","white","no","yes","768","35","53","/home/ubuntu/Desktop/panara/subject-702.csv","Jazzy James","3.1.3","4.1.2.wav","4.2.2.wav","4.2.4.wav","0","0","0","0","NA","1328","17853","1328","NA","1041991","space","2","1024","2","48000","-16","experiment","4.1.2.wav","4.2.4.wav","4.2.2.wav","702","even","1619778","1622214","1621714","1621007","1369602","NA","1618777","1622942","751","NA","NA","1618775","1624271","1408774","1618775","1042744","NA","1618778","753","New experiment","NA","0","0","0","yes","1024"
"undefined","undefined","undefined","undefined","black","no","legacy","0","uniform","undefined","undefined","undefined","90","90","181","90","90","NA","90","90","0","0","0","90","90","0","90","0","NA","90","0","Thu 30 May 2019 10:47:41 AM PDT","500","1000","The main experiment item","yes","NA","ABX_v3.osexp","/home/ubuntu/Desktop/panara","no","no","mono","no","18","no","white","no","yes","768","36","53","/home/ubuntu/Desktop/panara/subject-702.csv","Jazzy James","3.1.3","2.2.3.wav","2.2.5.wav","4.2.5.wav","0","1","0","1","NA","1103","17853","1103","NA","1041991","space","2","1024","2","48000","-16","experiment","2.2.3.wav","4.2.5.wav","2.2.5.wav","702","even","1625440","1627898","1627398","1626673","1369602","NA","1624440","1628615","751","NA","NA","1624437","1629719","1408774","1624437","1042744","NA","1624440","753","New experiment","NA","0","0","0","yes","1024"
"undefined","undefined","undefined","undefined","black","no","legacy","0","uniform","undefined","undefined","undefined","91","91","183","91","91","NA","91","91","0","0","0","91","91","0","91","0","NA","91","0","Thu 30 May 2019 10:47:41 AM PDT","500","1000","The main experiment item","yes","NA","ABX_v3.osexp","/home/ubuntu/Desktop/panara","yes","no","mono","no","18","no","white","no","yes","768","37","53","/home/ubuntu/Desktop/panara/subject-702.csv","Jazzy James","3.1.3","1.1.5.wav","1.2.5.wav","1.2.3.wav","0","1","0","1","NA","837","17853","837","NA","1041991","space","2","1024","2","48000","-16","experiment","1.2.3.wav","1.1.5.wav","1.2.5.wav","702","even","1630902","1633461","1632961","1632178","1369602","NA","1629902","1634240","751","NA","NA","1629899","1635078","1408774","1629898","1042744","NA","1629902","753","New experiment","NA","0","0","0","yes","1024"
"undefined","undefined","undefined","undefined","black","no","legacy","0","uniform","undefined","undefined","undefined","92","92","185","92","92","NA","92","92","0","0","0","92","92","0","92","0","NA","92","0","Thu 30 May 2019 10:47:41 AM PDT","500","1000","The main experiment item","yes","NA","ABX_v3.osexp","/home/ubuntu/Desktop/panara","no","no","mono","no","18","no","white","no","yes","768","38","53","/home/ubuntu/Desktop/panara/subject-702.csv","Jazzy James","3.1.3","1.1.1.wav","3.1.1.wav","3.1.3.wav","0","0","0","0","NA","999","17853","999","NA","1041991","space","2","1024","2","48000","-16","experiment","1.1.1.wav","3.1.3.wav","3.1.1.wav","702","even","1636257","1638798","1638298","1637552","1369602","NA","1635257","1639551","751","NA","NA","1635254","1640550","1408774","1635254","1042744","NA","1635257","753","New experiment","NA","0","0","0","yes","1024"
"undefined","undefined","undefined","undefined","black","no","legacy","0","uniform","undefined","undefined","undefined","93","93","187","93","93","NA","93","93","0","0","0","93","93","0","93","0","NA","93","0","Thu 30 May 2019 10:47:41 AM PDT","500","1000","The main experiment item","yes","NA","ABX_v3.osexp","/home/ubuntu/Desktop/panara","yes","no","mono","no","18","no","white","no","yes","768","39","53","/home/ubuntu/Desktop/panara/subject-702.csv","Jazzy James","3.1.3","3.2.4.wav","4.2.4.wav","4.2.2.wav","0","1","0","1","NA","1327","17853","1327","NA","1041991","space","2","1024","2","48000","-16","experiment","4.2.2.wav","3.2.4.wav","4.2.4.wav","702","even","1641702","1644208","1643708","1642957","1369602","NA","1640702","1644926","751","NA","NA","1640700","1646254","1408774","1640700","1042744","NA","1640702","753","New experiment","NA","0","0","0","yes","1024"
"undefined","undefined","undefined","undefined","black","no","legacy","0","uniform","undefined","undefined","undefined","94","94","189","94","94","NA","94","94","0","0","0","94","94","0","94","0","NA","94","0","Thu 30 May 2019 10:47:41 AM PDT","500","1000","The main experiment item","yes","NA","ABX_v3.osexp","/home/ubuntu/Desktop/panara","yes","no","mono","no","18","no","white","no","yes","768","40","53","/home/ubuntu/Desktop/panara/subject-702.csv","Jazzy James","3.1.3","3.2.3.wav","4.2.3.wav","4.2.1.wav","0","1","0","1","NA","946","17853","946","NA","1041991","space","2","1024","2","48000","-16","experiment","4.2.1.wav","3.2.3.wav","4.2.3.wav","702","even","1647434","1649938","1649438","1648692","1369602","NA","1646434","1650691","751","NA","NA","1646432","1651638","1408774","1646432","1042744","NA","1646434","753","New experiment","NA","0","0","0","yes","1024"
"undefined","undefined","undefined","undefined","black","no","legacy","0","uniform","undefined","undefined","undefined","95","95","191","95","95","NA","95","95","0","0","0","95","95","0","95","0","NA","95","0","Thu 30 May 2019 10:47:41 AM PDT","500","1000","The main experiment item","yes","NA","ABX_v3.osexp","/home/ubuntu/Desktop/panara","no","no","mono","no","18","no","white","no","yes","768","41","53","/home/ubuntu/Desktop/panara/subject-702.csv","Jazzy James","3.1.3","2.2.3.wav","1.2.3.wav","1.2.5.wav","0","1","0","1","NA","902","17853","902","NA","1041991","space","2","1024","2","48000","-16","experiment","2.2.3.wav","1.2.5.wav","1.2.3.wav","702","even","1652810","1655348","1654848","1654064","1369602","NA","1651810","1656134","751","NA","NA","1651807","1657037","1408774","1651807","1042744","NA","1651810","753","New experiment","NA","0","0","0","yes","1024"
"undefined","undefined","undefined","undefined","black","no","legacy","0","uniform","undefined","undefined","undefined","96","96","193","96","96","NA","96","96","0","0","0","96","96","0","96","0","NA","96","0","Thu 30 May 2019 10:47:41 AM PDT","500","1000","The main experiment item","yes","NA","ABX_v3.osexp","/home/ubuntu/Desktop/panara","no","no","mono","no","18","no","white","no","yes","768","42","53","/home/ubuntu/Desktop/panara/subject-702.csv","Jazzy James","3.1.3","3.2.2.wav","4.2.2.wav","4.2.4.wav","0","0","0","0","NA","1459","17853","1459","NA","1041991","space","2","1024","2","48000","-16","experiment","3.2.2.wav","4.2.4.wav","4.2.2.wav","702","even","1658189","1660707","1660207","1659474","1369602","NA","1657188","1661426","751","NA","NA","1657186","1662886","1408774","1657186","1042744","NA","1657189","753","New experiment","NA","0","0","0","yes","1024"
"undefined","undefined","undefined","undefined","black","no","legacy","0","uniform","undefined","undefined","undefined","97","97","195","97","97","NA","97","97","0","0","0","97","97","0","97","0","NA","97","0","Thu 30 May 2019 10:47:41 AM PDT","500","1000","The main experiment item","yes","NA","ABX_v3.osexp","/home/ubuntu/Desktop/panara","yes","no","mono","no","18","no","white","no","yes","768","43","53","/home/ubuntu/Desktop/panara/subject-702.csv","Jazzy James","3.1.3","2.2.5.wav","2.2.3.wav","4.2.3.wav","0","1","0","1","NA","804","17853","804","NA","1041991","space","2","1024","2","48000","-16","experiment","4.2.3.wav","2.2.5.wav","2.2.3.wav","702","even","1664044","1666526","1666026","1665274","1369602","NA","1663044","1667280","751","NA","NA","1663042","1668084","1408774","1663042","1042744","NA","1663044","753","New experiment","NA","0","0","0","yes","1024"
"undefined","undefined","undefined","undefined","black","no","legacy","0","uniform","undefined","undefined","undefined","98","98","197","98","98","NA","98","98","0","0","0","98","98","0","98","0","NA","98","0","Thu 30 May 2019 10:47:41 AM PDT","500","1000","The main experiment item","yes","NA","ABX_v3.osexp","/home/ubuntu/Desktop/panara","yes","no","mono","no","18","no","white","no","yes","768","44","53","/home/ubuntu/Desktop/panara/subject-702.csv","Jazzy James","3.1.3","4.1.3.wav","4.1.1.wav","3.1.1.wav","0","1","0","1","NA","665","17853","665","NA","1041991","space","2","1024","2","48000","-16","experiment","3.1.1.wav","4.1.3.wav","4.1.1.wav","702","even","1669245","1671710","1671210","1670487","1369602","NA","1668245","1672451","751","NA","NA","1668242","1673116","1408774","1668242","1042744","NA","1668245","753","New experiment","NA","0","0","0","yes","1024"
"undefined","undefined","undefined","undefined","black","no","legacy","0","uniform","undefined","undefined","undefined","99","99","199","99","99","NA","99","99","0","0","0","99","99","0","99","0","NA","99","0","Thu 30 May 2019 10:47:41 AM PDT","500","1000","The main experiment item","yes","NA","ABX_v3.osexp","/home/ubuntu/Desktop/panara","yes","no","mono","no","18","no","white","no","yes","768","45","53","/home/ubuntu/Desktop/panara/subject-702.csv","Jazzy James","3.1.3","2.2.4.wav","1.2.4.wav","1.2.2.wav","0","0","0","0","NA","799","17853","799","NA","1041991","space","2","1024","2","48000","-16","experiment","1.2.2.wav","2.2.4.wav","1.2.4.wav","702","even","1674283","1676759","1676259","1675508","1369602","NA","1673283","1677541","751","NA","NA","1673280","1678341","1408774","1673280","1042744","NA","1673283","753","New experiment","NA","0","0","0","yes","1024"
"undefined","undefined","undefined","undefined","black","no","legacy","0","uniform","undefined","undefined","undefined","100","100","201","100","100","NA","100","100","0","0","0","100","100","0","100","0","NA","100","0","Thu 30 May 2019 10:47:41 AM PDT","500","1000","The main experiment item","yes","NA","ABX_v3.osexp","/home/ubuntu/Desktop/panara","yes","no","mono","no","18","no","white","no","yes","768","46","53","/home/ubuntu/Desktop/panara/subject-702.csv","Jazzy James","3.1.3","2.2.3.wav","2.2.1.wav","2.1.1.wav","0","0","0","0","NA","753","23595","753","NA","1041991","space","2","1024","2","48000","-16","experiment","2.1.1.wav","2.2.3.wav","2.2.1.wav","702","even","1703110","1705543","1705043","1704328","1678512","NA","1702110","1706305","751","NA","NA","1678510","1707059","1408774","1678509","1042744","NA","1702110","753","New experiment","NA","0","0","0","yes","1024"
"undefined","undefined","undefined","undefined","black","no","legacy","0","uniform","undefined","undefined","undefined","101","101","203","101","101","NA","101","101","0","0","0","101","101","0","101","0","NA","101","0","Thu 30 May 2019 10:47:41 AM PDT","500","1000","The main experiment item","yes","NA","ABX_v3.osexp","/home/ubuntu/Desktop/panara","no","no","mono","no","18","no","white","no","yes","768","47","53","/home/ubuntu/Desktop/panara/subject-702.csv","Jazzy James","3.1.3","4.1.2.wav","4.1.4.wav","2.1.4.wav","0","1","0","1","NA","829","23595","829","NA","1041991","space","2","1024","2","48000","-16","experiment","4.1.2.wav","2.1.4.wav","4.1.4.wav","702","even","1708227","1710691","1710191","1709469","1678512","NA","1707227","1711446","751","NA","NA","1707225","1712276","1408774","1707225","1042744","NA","1707227","753","New experiment","NA","0","0","0","yes","1024"
"undefined","undefined","undefined","undefined","black","no","legacy","0","uniform","undefined","undefined","undefined","102","102","205","102","102","NA","102","102","0","0","0","102","102","0","102","0","NA","102","0","Thu 30 May 2019 10:47:41 AM PDT","500","1000","The main experiment item","yes","NA","ABX_v3.osexp","/home/ubuntu/Desktop/panara","yes","no","mono","no","18","no","white","no","yes","768","48","53","/home/ubuntu/Desktop/panara/subject-702.csv","Jazzy James","3.1.3","2.1.4.wav","2.1.2.wav","2.2.2.wav","0","0","0","0","NA","1133","23595","1133","NA","1041991","space","2","1024","2","48000","-16","experiment","2.2.2.wav","2.1.4.wav","2.1.2.wav","702","even","1713444","1715955","1715455","1714702","1678512","NA","1712443","1716685","751","NA","NA","1712441","1717819","1408774","1712441","1042744","NA","1712444","753","New experiment","NA","0","0","0","yes","1024"
"undefined","undefined","undefined","undefined","black","no","legacy","0","uniform","undefined","undefined","undefined","103","103","207","103","103","NA","103","103","0","0","0","103","103","0","103","0","NA","103","0","Thu 30 May 2019 10:47:41 AM PDT","500","1000","The main experiment item","yes","NA","ABX_v3.osexp","/home/ubuntu/Desktop/panara","yes","no","mono","no","18","no","white","no","yes","768","49","53","/home/ubuntu/Desktop/panara/subject-702.csv","Jazzy James","3.1.3","4.2.5.wav","4.1.5.wav","4.1.3.wav","0","1","0","1","NA","1425","23595","1425","NA","1041991","space","2","1024","2","48000","-16","experiment","4.1.3.wav","4.2.5.wav","4.1.5.wav","702","even","1718984","1721421","1720921","1720199","1678512","NA","1717984","1722153","751","NA","NA","1717981","1723579","1408774","1717981","1042744","NA","1717984","753","New experiment","NA","0","0","0","yes","1024"
"undefined","undefined","undefined","undefined","black","no","legacy","0","uniform","undefined","undefined","undefined","104","104","209","104","104","NA","104","104","0","0","0","104","104","0","104","0","NA","104","0","Thu 30 May 2019 10:47:41 AM PDT","500","1000","The main experiment item","yes","NA","ABX_v3.osexp","/home/ubuntu/Desktop/panara","yes","no","mono","no","18","no","white","no","yes","768","50","53","/home/ubuntu/Desktop/panara/subject-702.csv","Jazzy James","3.1.3","3.2.4.wav","3.1.4.wav","3.1.2.wav","0","0","0","0","NA","1554","23595","1554","NA","1041991","space","2","1024","2","48000","-16","experiment","3.1.2.wav","3.2.4.wav","3.1.4.wav","702","even","1724738","1727217","1726717","1725973","1678512","NA","1723738","1727999","751","NA","NA","1723736","1729554","1408774","1723736","1042744","NA","1723738","753","New experiment","NA","0","0","0","yes","1024"
"undefined","undefined","undefined","undefined","black","no","legacy","0","uniform","undefined","undefined","undefined","105","105","211","105","105","NA","105","105","0","0","0","105","105","0","105","0","NA","105","0","Thu 30 May 2019 10:47:41 AM PDT","500","1000","The main experiment item","yes","NA","ABX_v3.osexp","/home/ubuntu/Desktop/panara","no","no","mono","no","18","no","white","no","yes","768","51","53","/home/ubuntu/Desktop/panara/subject-702.csv","Jazzy James","3.1.3","2.1.2.wav","2.1.4.wav","4.1.4.wav","0","1","0","1","NA","868","23595","868","NA","1041991","space","2","1024","2","48000","-16","experiment","2.1.2.wav","4.1.4.wav","2.1.4.wav","702","even","1730733","1733232","1732732","1731996","1678512","NA","1729733","1733957","751","NA","NA","1729731","1734825","1408774","1729731","1042744","NA","1729733","753","New experiment","NA","0","0","0","yes","1024"
"undefined","undefined","undefined","undefined","black","no","legacy","0","uniform","undefined","undefined","undefined","106","106","213","106","106","NA","106","106","0","0","0","106","106","0","106","0","NA","106","0","Thu 30 May 2019 10:47:41 AM PDT","500","1000","The main experiment item","yes","NA","ABX_v3.osexp","/home/ubuntu/Desktop/panara","yes","no","mono","no","18","no","white","no","yes","768","52","53","/home/ubuntu/Desktop/panara/subject-702.csv","Jazzy James","3.1.3","1.2.4.wav","2.2.4.wav","2.2.2.wav","0","0","0","0","NA","840","23595","840","NA","1041991","space","2","1024","2","48000","-16","experiment","2.2.2.wav","1.2.4.wav","2.2.4.wav","702","even","1736013","1738521","1738021","1737271","1678512","NA","1735012","1739247","751","NA","NA","1735009","1740088","1408774","1735009","1042744","NA","1735012","753","New experiment","NA","0","0","0","yes","1024"
"undefined","undefined","undefined","undefined","black","no","legacy","0","uniform","undefined","undefined","undefined","107","107","215","107","107","NA","107","107","0","0","0","107","107","0","107","0","NA","107","0","Thu 30 May 2019 10:47:41 AM PDT","500","1000","The main experiment item","yes","NA","ABX_v3.osexp","/home/ubuntu/Desktop/panara","no","no","mono","no","18","no","white","no","yes","768","53","53","/home/ubuntu/Desktop/panara/subject-702.csv","Jazzy James","3.1.3","3.2.2.wav","3.1.2.wav","3.1.4.wav","0","0","0","0","NA","1084","23595","1084","NA","1041991","space","2","1024","2","48000","-16","experiment","3.2.2.wav","3.1.4.wav","3.1.2.wav","702","even","1741251","1743805","1743305","1742524","1678512","NA","1740251","1744588","751","NA","NA","1740248","1745672","1408774","1740248","1042744","NA","1740251","753","New experiment","NA","0","0","0","yes","1024"
"undefined","undefined","undefined","undefined","black","no","legacy","0","uniform","undefined","undefined","undefined","108","108","217","108","108","NA","108","108","0","0","0","108","108","0","108","0","NA","108","0","Thu 30 May 2019 10:47:41 AM PDT","500","1000","The main experiment item","yes","NA","ABX_v3.osexp","/home/ubuntu/Desktop/panara","no","no","mono","no","18","no","white","no","yes","768","54","53","/home/ubuntu/Desktop/panara/subject-702.csv","Jazzy James","3.1.3","2.1.3.wav","2.1.5.wav","2.2.5.wav","0","0","0","0","NA","925","23595","925","NA","1041991","space","2","1024","2","48000","-16","experiment","2.1.3.wav","2.2.5.wav","2.1.5.wav","702","even","1746839","1749343","1748843","1748092","1678512","NA","1745838","1750097","751","NA","NA","1745836","1751023","1408774","1745836","1042744","NA","1745839","753","New experiment","NA","0","0","0","yes","1024"
"undefined","undefined","undefined","undefined","black","no","legacy","0","uniform","undefined","undefined","undefined","109","109","219","109","109","NA","109","109","0","0","0","109","109","0","109","0","NA","109","0","Thu 30 May 2019 10:47:41 AM PDT","500","1000","The main experiment item","yes","NA","ABX_v3.osexp","/home/ubuntu/Desktop/panara","yes","no","mono","no","18","no","white","no","yes","768","55","53","/home/ubuntu/Desktop/panara/subject-702.csv","Jazzy James","3.1.3","3.1.5.wav","1.1.5.wav","1.1.3.wav","0","1","0","1","NA","2989","23595","2989","NA","1041991","space","2","1024","2","48000","-16","experiment","1.1.3.wav","3.1.5.wav","1.1.5.wav","702","even","1752185","1754748","1754248","1753467","1678512","NA","1751184","1755537","751","NA","NA","1751182","1758527","1408774","1751182","1042744","NA","1751185","753","New experiment","NA","0","0","0","yes","1024"
"undefined","undefined","undefined","undefined","black","no","legacy","0","uniform","undefined","undefined","undefined","110","110","221","110","110","NA","110","110","0","0","0","110","110","0","110","0","NA","110","0","Thu 30 May 2019 10:47:41 AM PDT","500","1000","The main experiment item","yes","NA","ABX_v3.osexp","/home/ubuntu/Desktop/panara","no","no","mono","no","18","no","white","no","yes","768","56","53","/home/ubuntu/Desktop/panara/subject-702.csv","Jazzy James","3.1.3","3.1.1.wav","3.1.3.wav","4.1.3.wav","0","0","0","0","NA","1480","23595","1480","NA","1041991","space","2","1024","2","48000","-16","experiment","3.1.1.wav","4.1.3.wav","3.1.3.wav","702","even","1759715","1762228","1761727","1760977","1678512","NA","1758714","1762982","751","NA","NA","1758712","1764462","1408774","1758712","1042744","NA","1758715","753","New experiment","NA","0","0","0","yes","1024"
"undefined","undefined","undefined","undefined","black","no","legacy","0","uniform","undefined","undefined","undefined","111","111","223","111","111","NA","111","111","0","0","0","111","111","0","111","0","NA","111","0","Thu 30 May 2019 10:47:41 AM PDT","500","1000","The main experiment item","yes","NA","ABX_v3.osexp","/home/ubuntu/Desktop/panara","no","no","mono","no","18","no","white","no","yes","768","57","53","/home/ubuntu/Desktop/panara/subject-702.csv","Jazzy James","3.1.3","2.1.3.wav","2.1.5.wav","4.1.5.wav","0","1","0","1","NA","2310","23595","2310","NA","1041991","space","2","1024","2","48000","-16","experiment","2.1.3.wav","4.1.5.wav","2.1.5.wav","702","even","1765647","1768144","1767643","1766893","1678512","NA","1764647","1768895","751","NA","NA","1764644","1771206","1408774","1764644","1042744","NA","1764647","753","New experiment","NA","0","0","0","yes","1024"
