"acc","accuracy","average_response_time","avg_rt","background","bidi","canvas_backend","compensation","coordinates","correct","correct_display_selecting","correct_welcome","count_A","count_B","count_ISI","count_X","count_break","count_determine_break","count_display_listening","count_display_selecting","count_experiment","count_finished","count_getting_started","count_new_inline_script","count_new_logger","count_new_loop","count_new_sequence","count_plain_block","count_setup_breaks","count_wait_nextitem","count_welcome","datetime","delay_ISI","delay_wait_nextitem","description","disable_garbage_collection","empty_column","experiment_file","experiment_path","flip_order","font_bold","font_family","font_italic","font_size","font_underline","foreground","form_clicks","fullscreen","height","live_row","live_row_plain_block","logfile","opensesame_codename","opensesame_version","play1","play2","play3","repeat_cycle","response","response_break","response_display_selecting","response_finished","response_time","response_time_break","response_time_display_selecting","response_time_finished","response_time_welcome","response_welcome","round_decimals","sound_buf_size","sound_channels","sound_freq","sound_sample_size","start","stimA","stimB","stimX","subject_nr","subject_parity","time_A","time_B","time_ISI","time_X","time_break","time_determine_break","time_display_listening","time_display_selecting","time_experiment","time_finished","time_getting_started","time_new_inline_script","time_new_logger","time_new_loop","time_new_sequence","time_plain_block","time_setup_breaks","time_wait_nextitem","time_welcome","title","to_break","total_correct","total_response_time","total_responses","uniform_coordinates","width"
"undefined","undefined","undefined","undefined","black","no","legacy","0","uniform","undefined","undefined","undefined","0","0","1","0","0","NA","0","0","0","0","0","0","0","0","0","0","NA","0","0","Thu 06 Jun 2019 12:13:31 PM PDT","500","1000","The main experiment item","yes","NA","ABX_v3.osexp","/home/ubuntu/Desktop/panara","yes","no","mono","no","18","no","white","no","yes","768","0","0","/home/ubuntu/Desktop/panara/subject-705.csv","Jazzy James","3.1.3","3.1.5.wav","3.1.5.wav","3.1.3.wav","0","1","NA","1","NA","2343","NA","2343","NA","181275","]","2","1024","2","48000","-16","experiment","3.1.3.wav","3.1.5.wav","3.1.5.wav","705","odd","183186","185755","185255","184485","NA","NA","182186","186522","803","NA","NA","182183","188866","NA","182183","182081","NA","182186","805","New experiment","NA","0","0","0","yes","1024"
"undefined","undefined","undefined","undefined","black","no","legacy","0","uniform","undefined","undefined","undefined","1","1","3","1","1","NA","1","1","0","0","0","1","1","0","1","0","NA","1","0","Thu 06 Jun 2019 12:13:31 PM PDT","500","1000","The main experiment item","yes","NA","ABX_v3.osexp","/home/ubuntu/Desktop/panara","yes","no","mono","no","18","no","white","no","yes","768","1","1","/home/ubuntu/Desktop/panara/subject-705.csv","Jazzy James","3.1.3","1.2.4.wav","1.2.4.wav","1.2.2.wav","0","1","NA","1","NA","1623","NA","1623","NA","181275","]","2","1024","2","48000","-16","experiment","1.2.2.wav","1.2.4.wav","1.2.4.wav","705","odd","190133","192641","192141","191392","NA","NA","189132","193433","803","NA","NA","189130","195056","NA","189130","182081","NA","189133","805","New experiment","NA","0","0","0","yes","1024"
"undefined","undefined","undefined","undefined","black","no","legacy","0","uniform","undefined","undefined","undefined","2","2","5","2","2","NA","2","2","0","0","0","2","2","0","2","0","NA","2","0","Thu 06 Jun 2019 12:13:31 PM PDT","500","1000","The main experiment item","yes","NA","ABX_v3.osexp","/home/ubuntu/Desktop/panara","yes","no","mono","no","18","no","white","no","yes","768","2","2","/home/ubuntu/Desktop/panara/subject-705.csv","Jazzy James","3.1.3","2.1.5.wav","2.1.5.wav","2.1.3.wav","0","1","NA","1","NA","1667","NA","1667","NA","181275","]","2","1024","2","48000","-16","experiment","2.1.3.wav","2.1.5.wav","2.1.5.wav","705","odd","196225","198722","198222","197471","NA","NA","195224","199469","803","NA","NA","195222","201136","NA","195222","182081","NA","195225","805","New experiment","NA","0","0","0","yes","1024"
"undefined","undefined","undefined","undefined","black","no","legacy","0","uniform","undefined","undefined","undefined","3","3","7","3","3","NA","3","3","0","0","0","3","3","0","3","0","NA","3","0","Thu 06 Jun 2019 12:13:31 PM PDT","500","1000","The main experiment item","yes","NA","ABX_v3.osexp","/home/ubuntu/Desktop/panara","no","no","mono","no","18","no","white","no","yes","768","3","3","/home/ubuntu/Desktop/panara/subject-705.csv","Jazzy James","3.1.3","2.2.1.wav","2.2.1.wav","2.2.3.wav","0","0","NA","0","NA","2243","NA","2243","NA","181275","]","2","1024","2","48000","-16","experiment","2.2.1.wav","2.2.3.wav","2.2.1.wav","705","odd","202340","204807","204307","203595","NA","NA","201340","205526","803","NA","NA","201336","207769","NA","201336","182081","NA","201340","805","New experiment","NA","0","0","0","yes","1024"
"undefined","undefined","undefined","undefined","black","no","legacy","0","uniform","undefined","undefined","undefined","4","4","9","4","4","NA","4","4","0","0","0","4","4","0","4","0","NA","4","0","Thu 06 Jun 2019 12:13:31 PM PDT","500","1000","The main experiment item","yes","NA","ABX_v3.osexp","/home/ubuntu/Desktop/panara","no","no","mono","no","18","no","white","no","yes","768","4","4","/home/ubuntu/Desktop/panara/subject-705.csv","Jazzy James","3.1.3","3.2.3.wav","3.2.5.wav","3.2.5.wav","0","0","NA","0","NA","2727","NA","2727","NA","181275","]","2","1024","2","48000","-16","experiment","3.2.3.wav","3.2.5.wav","3.2.5.wav","705","odd","208997","211530","211030","210241","NA","NA","207997","212304","803","NA","NA","207995","215032","NA","207995","182081","NA","207997","805","New experiment","NA","0","0","0","yes","1024"
"undefined","undefined","undefined","undefined","black","no","legacy","0","uniform","undefined","undefined","undefined","5","5","11","5","5","NA","5","5","0","0","0","5","5","0","5","0","NA","5","0","Thu 06 Jun 2019 12:13:31 PM PDT","500","1000","The main experiment item","yes","NA","ABX_v3.osexp","/home/ubuntu/Desktop/panara","yes","no","mono","no","18","no","white","no","yes","768","5","5","/home/ubuntu/Desktop/panara/subject-705.csv","Jazzy James","3.1.3","4.1.5.wav","4.1.3.wav","4.1.3.wav","0","1","NA","1","NA","2645","NA","2645","NA","181275","]","2","1024","2","48000","-16","experiment","4.1.3.wav","4.1.5.wav","4.1.3.wav","705","odd","216242","218698","218198","217474","NA","NA","215241","219418","803","NA","NA","215239","222064","NA","215239","182081","NA","215242","805","New experiment","NA","0","0","0","yes","1024"
"undefined","undefined","undefined","undefined","black","no","legacy","0","uniform","undefined","undefined","undefined","6","6","13","6","6","NA","6","6","0","0","0","6","6","0","6","0","NA","6","0","Thu 06 Jun 2019 12:13:31 PM PDT","500","1000","The main experiment item","yes","NA","ABX_v3.osexp","/home/ubuntu/Desktop/panara","yes","no","mono","no","18","no","white","no","yes","768","6","6","/home/ubuntu/Desktop/panara/subject-705.csv","Jazzy James","3.1.3","1.2.5.wav","1.2.5.wav","1.2.3.wav","0","1","NA","1","NA","1811","NA","1811","NA","181275","]","2","1024","2","48000","-16","experiment","1.2.3.wav","1.2.5.wav","1.2.5.wav","705","odd","223226","225798","225298","224513","NA","NA","222226","226853","803","NA","NA","222223","228664","NA","222223","182081","NA","222226","805","New experiment","NA","0","0","0","yes","1024"
"undefined","undefined","undefined","undefined","black","no","legacy","0","uniform","undefined","undefined","undefined","7","7","15","7","7","NA","7","7","0","0","0","7","7","0","7","0","NA","7","0","Thu 06 Jun 2019 12:13:31 PM PDT","500","1000","The main experiment item","yes","NA","ABX_v3.osexp","/home/ubuntu/Desktop/panara","yes","no","mono","no","18","no","white","no","yes","768","7","7","/home/ubuntu/Desktop/panara/subject-705.csv","Jazzy James","3.1.3","1.2.4.wav","1.2.2.wav","1.2.2.wav","0","1","NA","1","NA","2186","NA","2186","NA","181275","]","2","1024","2","48000","-16","experiment","1.2.2.wav","1.2.4.wav","1.2.2.wav","705","odd","229853","232384","231884","231112","NA","NA","228853","233166","803","NA","NA","228850","235352","NA","228850","182081","NA","228853","805","New experiment","NA","0","0","0","yes","1024"
"undefined","undefined","undefined","undefined","black","no","legacy","0","uniform","undefined","undefined","undefined","8","8","17","8","8","NA","8","8","0","0","0","8","8","0","8","0","NA","8","0","Thu 06 Jun 2019 12:13:31 PM PDT","500","1000","The main experiment item","yes","NA","ABX_v3.osexp","/home/ubuntu/Desktop/panara","yes","no","mono","no","18","no","white","no","yes","768","8","8","/home/ubuntu/Desktop/panara/subject-705.csv","Jazzy James","3.1.3","3.1.3.wav","3.1.3.wav","3.1.1.wav","0","0","NA","0","NA","1167","NA","1167","NA","181275","]","2","1024","2","48000","-16","experiment","3.1.1.wav","3.1.3.wav","3.1.3.wav","705","odd","236548","239049","238549","237795","NA","NA","235548","239801","803","NA","NA","235546","240968","NA","235546","182081","NA","235548","805","New experiment","NA","0","0","0","yes","1024"
"undefined","undefined","undefined","undefined","black","no","legacy","0","uniform","undefined","undefined","undefined","9","9","19","9","9","NA","9","9","0","0","0","9","9","0","9","0","NA","9","0","Thu 06 Jun 2019 12:13:31 PM PDT","500","1000","The main experiment item","yes","NA","ABX_v3.osexp","/home/ubuntu/Desktop/panara","no","no","mono","no","18","no","white","no","yes","768","9","9","/home/ubuntu/Desktop/panara/subject-705.csv","Jazzy James","3.1.3","5.2.2.wav","5.2.4.wav","5.2.4.wav","0","0","NA","0","NA","1322","NA","1322","NA","181275","]","2","1024","2","48000","-16","experiment","5.2.2.wav","5.2.4.wav","5.2.4.wav","705","odd","242109","244572","244072","243315","NA","NA","241109","245326","803","NA","NA","241106","246648","NA","241106","182081","NA","241109","805","New experiment","NA","0","0","0","yes","1024"
"undefined","undefined","undefined","undefined","black","no","legacy","0","uniform","undefined","undefined","undefined","10","10","21","10","10","NA","10","10","0","0","0","10","10","0","10","0","NA","10","0","Thu 06 Jun 2019 12:13:31 PM PDT","500","1000","The main experiment item","yes","NA","ABX_v3.osexp","/home/ubuntu/Desktop/panara","no","no","mono","no","18","no","white","no","yes","768","10","10","/home/ubuntu/Desktop/panara/subject-705.csv","Jazzy James","3.1.3","1.2.1.wav","1.2.3.wav","1.2.3.wav","0","0","NA","0","NA","2199","NA","2199","NA","181275","]","2","1024","2","48000","-16","experiment","1.2.1.wav","1.2.3.wav","1.2.3.wav","705","odd","247839","250403","249903","249123","NA","NA","246839","251184","803","NA","NA","246837","253384","NA","246836","182081","NA","246839","805","New experiment","NA","0","0","0","yes","1024"
"undefined","undefined","undefined","undefined","black","no","legacy","0","uniform","undefined","undefined","undefined","11","11","23","11","11","NA","11","11","0","0","0","11","11","0","11","0","NA","11","0","Thu 06 Jun 2019 12:13:31 PM PDT","500","1000","The main experiment item","yes","NA","ABX_v3.osexp","/home/ubuntu/Desktop/panara","yes","no","mono","no","18","no","white","no","yes","768","11","11","/home/ubuntu/Desktop/panara/subject-705.csv","Jazzy James","3.1.3","5.2.4.wav","5.2.2.wav","5.2.2.wav","0","1","NA","1","NA","1790","NA","1790","NA","181275","]","2","1024","2","48000","-16","experiment","5.2.2.wav","5.2.4.wav","5.2.2.wav","705","odd","254542","256967","256467","255782","NA","NA","253542","257665","803","NA","NA","253540","259456","NA","253540","182081","NA","253542","805","New experiment","NA","0","0","0","yes","1024"
"undefined","undefined","undefined","undefined","black","no","legacy","0","uniform","undefined","undefined","undefined","12","12","25","12","12","NA","12","12","0","0","0","12","12","0","12","0","NA","12","0","Thu 06 Jun 2019 12:13:31 PM PDT","500","1000","The main experiment item","yes","NA","ABX_v3.osexp","/home/ubuntu/Desktop/panara","yes","no","mono","no","18","no","white","no","yes","768","12","12","/home/ubuntu/Desktop/panara/subject-705.csv","Jazzy James","3.1.3","4.1.3.wav","4.1.3.wav","4.1.1.wav","0","0","NA","0","NA","1601","NA","1601","NA","181275","]","2","1024","2","48000","-16","experiment","4.1.1.wav","4.1.3.wav","4.1.3.wav","705","odd","260673","263139","262639","261916","NA","NA","259673","263894","803","NA","NA","259670","265495","NA","259670","182081","NA","259673","805","New experiment","NA","0","0","0","yes","1024"
"undefined","undefined","undefined","undefined","black","no","legacy","0","uniform","undefined","undefined","undefined","13","13","27","13","13","NA","13","13","0","0","0","13","13","0","13","0","NA","13","0","Thu 06 Jun 2019 12:13:31 PM PDT","500","1000","The main experiment item","yes","NA","ABX_v3.osexp","/home/ubuntu/Desktop/panara","yes","no","mono","no","18","no","white","no","yes","768","13","13","/home/ubuntu/Desktop/panara/subject-705.csv","Jazzy James","3.1.3","3.2.3.wav","3.2.1.wav","3.2.1.wav","0","0","NA","0","NA","2291","NA","2291","NA","181275","]","2","1024","2","48000","-16","experiment","3.2.1.wav","3.2.3.wav","3.2.1.wav","705","odd","266669","269176","268676","267911","NA","NA","265669","269931","803","NA","NA","265667","272222","NA","265666","182081","NA","265669","805","New experiment","NA","0","0","0","yes","1024"
"undefined","undefined","undefined","undefined","black","no","legacy","0","uniform","undefined","undefined","undefined","14","14","29","14","14","NA","14","14","0","0","0","14","14","0","14","0","NA","14","0","Thu 06 Jun 2019 12:13:31 PM PDT","500","1000","The main experiment item","yes","NA","ABX_v3.osexp","/home/ubuntu/Desktop/panara","no","no","mono","no","18","no","white","no","yes","768","14","14","/home/ubuntu/Desktop/panara/subject-705.csv","Jazzy James","3.1.3","1.1.3.wav","1.1.3.wav","1.1.5.wav","0","0","NA","0","NA","1866","NA","1866","NA","181275","]","2","1024","2","48000","-16","experiment","1.1.3.wav","1.1.5.wav","1.1.3.wav","705","odd","273423","276019","275519","274694","NA","NA","272422","276789","803","NA","NA","272420","278655","NA","272420","182081","NA","272423","805","New experiment","NA","0","0","0","yes","1024"
"undefined","undefined","undefined","undefined","black","no","legacy","0","uniform","undefined","undefined","undefined","15","15","31","15","15","NA","15","15","0","0","0","15","15","0","15","0","NA","15","0","Thu 06 Jun 2019 12:13:31 PM PDT","500","1000","The main experiment item","yes","NA","ABX_v3.osexp","/home/ubuntu/Desktop/panara","no","no","mono","no","18","no","white","no","yes","768","15","15","/home/ubuntu/Desktop/panara/subject-705.csv","Jazzy James","3.1.3","4.2.1.wav","4.2.3.wav","4.2.3.wav","0","1","NA","1","NA","652","NA","652","NA","181275","]","2","1024","2","48000","-16","experiment","4.2.1.wav","4.2.3.wav","4.2.3.wav","705","odd","279823","282289","281789","281037","NA","NA","278822","283042","803","NA","NA","278820","283695","NA","278820","182081","NA","278823","805","New experiment","NA","0","0","0","yes","1024"
"undefined","undefined","undefined","undefined","black","no","legacy","0","uniform","undefined","undefined","undefined","16","16","33","16","16","NA","16","16","0","0","0","16","16","0","16","0","NA","16","0","Thu 06 Jun 2019 12:13:31 PM PDT","500","1000","The main experiment item","yes","NA","ABX_v3.osexp","/home/ubuntu/Desktop/panara","no","no","mono","no","18","no","white","no","yes","768","16","16","/home/ubuntu/Desktop/panara/subject-705.csv","Jazzy James","3.1.3","5.2.3.wav","5.2.5.wav","5.2.5.wav","0","0","NA","0","NA","1283","NA","1283","NA","181275","]","2","1024","2","48000","-16","experiment","5.2.3.wav","5.2.5.wav","5.2.5.wav","705","odd","284900","287347","286847","286129","NA","NA","283900","288099","803","NA","NA","283897","289383","NA","283897","182081","NA","283900","805","New experiment","NA","0","0","0","yes","1024"
"undefined","undefined","undefined","undefined","black","no","legacy","0","uniform","undefined","undefined","undefined","17","17","35","17","17","NA","17","17","0","0","0","17","17","0","17","0","NA","17","0","Thu 06 Jun 2019 12:13:31 PM PDT","500","1000","The main experiment item","yes","NA","ABX_v3.osexp","/home/ubuntu/Desktop/panara","yes","no","mono","no","18","no","white","no","yes","768","17","17","/home/ubuntu/Desktop/panara/subject-705.csv","Jazzy James","3.1.3","3.1.4.wav","3.1.4.wav","3.1.2.wav","0","1","NA","1","NA","1052","NA","1052","NA","181275","]","2","1024","2","48000","-16","experiment","3.1.2.wav","3.1.4.wav","3.1.4.wav","705","odd","290527","293085","292585","291804","NA","NA","289527","293866","803","NA","NA","289525","294919","NA","289524","182081","NA","289527","805","New experiment","NA","0","0","0","yes","1024"
"undefined","undefined","undefined","undefined","black","no","legacy","0","uniform","undefined","undefined","undefined","18","18","37","18","18","NA","18","18","0","0","0","18","18","0","18","0","NA","18","0","Thu 06 Jun 2019 12:13:31 PM PDT","500","1000","The main experiment item","yes","NA","ABX_v3.osexp","/home/ubuntu/Desktop/panara","no","no","mono","no","18","no","white","no","yes","768","18","18","/home/ubuntu/Desktop/panara/subject-705.csv","Jazzy James","3.1.3","3.2.2.wav","3.2.4.wav","3.2.4.wav","0","0","NA","0","NA","2086","NA","2086","NA","181275","]","2","1024","2","48000","-16","experiment","3.2.2.wav","3.2.4.wav","3.2.4.wav","705","odd","296184","298706","298206","297458","NA","NA","295184","299448","803","NA","NA","295181","301534","NA","295181","182081","NA","295184","805","New experiment","NA","0","0","0","yes","1024"
"undefined","undefined","undefined","undefined","black","no","legacy","0","uniform","undefined","undefined","undefined","19","19","39","19","19","NA","19","19","0","0","0","19","19","0","19","0","NA","19","0","Thu 06 Jun 2019 12:13:31 PM PDT","500","1000","The main experiment item","yes","NA","ABX_v3.osexp","/home/ubuntu/Desktop/panara","yes","no","mono","no","18","no","white","no","yes","768","19","19","/home/ubuntu/Desktop/panara/subject-705.csv","Jazzy James","3.1.3","4.2.5.wav","4.2.5.wav","4.2.3.wav","0","1","NA","1","NA","1731","NA","1731","NA","181275","]","2","1024","2","48000","-16","experiment","4.2.3.wav","4.2.5.wav","4.2.5.wav","705","odd","302732","305207","304707","303985","NA","NA","301732","305955","803","NA","NA","301730","307686","NA","301729","182081","NA","301732","805","New experiment","NA","0","0","0","yes","1024"
"undefined","undefined","undefined","undefined","black","no","legacy","0","uniform","undefined","undefined","undefined","20","20","41","20","20","NA","20","20","0","0","0","20","20","0","20","0","NA","20","0","Thu 06 Jun 2019 12:13:31 PM PDT","500","1000","The main experiment item","yes","NA","ABX_v3.osexp","/home/ubuntu/Desktop/panara","no","no","mono","no","18","no","white","no","yes","768","20","20","/home/ubuntu/Desktop/panara/subject-705.csv","Jazzy James","3.1.3","4.1.1.wav","4.1.1.wav","4.1.3.wav","0","0","NA","0","NA","1842","NA","1842","NA","181275","]","2","1024","2","48000","-16","experiment","4.1.1.wav","4.1.3.wav","4.1.1.wav","705","odd","308851","311344","310844","310107","NA","NA","307851","312068","803","NA","NA","307848","313910","NA","307848","182081","NA","307851","805","New experiment","NA","0","0","0","yes","1024"
"undefined","undefined","undefined","undefined","black","no","legacy","0","uniform","undefined","undefined","undefined","21","21","43","21","21","NA","21","21","0","0","0","21","21","0","21","0","NA","21","0","Thu 06 Jun 2019 12:13:31 PM PDT","500","1000","The main experiment item","yes","NA","ABX_v3.osexp","/home/ubuntu/Desktop/panara","no","no","mono","no","18","no","white","no","yes","768","21","21","/home/ubuntu/Desktop/panara/subject-705.csv","Jazzy James","3.1.3","3.1.3.wav","3.1.3.wav","3.1.5.wav","0","0","NA","0","NA","1094","NA","1094","NA","181275","]","2","1024","2","48000","-16","experiment","3.1.3.wav","3.1.5.wav","3.1.3.wav","705","odd","315104","317609","317109","316358","NA","NA","314103","318391","803","NA","NA","314101","319486","NA","314101","182081","NA","314104","805","New experiment","NA","0","0","0","yes","1024"
"undefined","undefined","undefined","undefined","black","no","legacy","0","uniform","undefined","undefined","undefined","22","22","45","22","22","NA","22","22","0","0","0","22","22","0","22","0","NA","22","0","Thu 06 Jun 2019 12:13:31 PM PDT","500","1000","The main experiment item","yes","NA","ABX_v3.osexp","/home/ubuntu/Desktop/panara","no","no","mono","no","18","no","white","no","yes","768","22","22","/home/ubuntu/Desktop/panara/subject-705.csv","Jazzy James","3.1.3","5.2.1.wav","5.2.1.wav","5.2.3.wav","0","1","NA","1","NA","1275","NA","1275","NA","181275","]","2","1024","2","48000","-16","experiment","5.2.1.wav","5.2.3.wav","5.2.1.wav","705","odd","320698","323099","322599","321905","NA","NA","319698","323817","803","NA","NA","319695","325093","NA","319695","182081","NA","319698","805","New experiment","NA","0","0","0","yes","1024"
"undefined","undefined","undefined","undefined","black","no","legacy","0","uniform","undefined","undefined","undefined","23","23","47","23","23","NA","23","23","0","0","0","23","23","0","23","0","NA","23","0","Thu 06 Jun 2019 12:13:31 PM PDT","500","1000","The main experiment item","yes","NA","ABX_v3.osexp","/home/ubuntu/Desktop/panara","yes","no","mono","no","18","no","white","no","yes","768","23","23","/home/ubuntu/Desktop/panara/subject-705.csv","Jazzy James","3.1.3","1.2.3.wav","1.2.1.wav","1.2.1.wav","0","1","NA","1","NA","1017","NA","1017","NA","181275","]","2","1024","2","48000","-16","experiment","1.2.1.wav","1.2.3.wav","1.2.1.wav","705","odd","326265","328838","328338","327557","NA","NA","325263","329620","803","NA","NA","325261","330638","NA","325261","182081","NA","325265","805","New experiment","NA","0","0","0","yes","1024"
"undefined","undefined","undefined","undefined","black","no","legacy","0","uniform","undefined","undefined","undefined","24","24","49","24","24","NA","24","24","0","0","0","24","24","0","24","0","NA","24","0","Thu 06 Jun 2019 12:13:31 PM PDT","500","1000","The main experiment item","yes","NA","ABX_v3.osexp","/home/ubuntu/Desktop/panara","no","no","mono","no","18","no","white","no","yes","768","24","24","/home/ubuntu/Desktop/panara/subject-705.csv","Jazzy James","3.1.3","2.2.3.wav","2.2.3.wav","2.2.5.wav","0","0","NA","0","NA","1222","NA","1222","NA","181275","]","2","1024","2","48000","-16","experiment","2.2.3.wav","2.2.5.wav","2.2.3.wav","705","odd","331831","334298","333798","333061","NA","NA","330830","335022","803","NA","NA","330827","336244","NA","330827","182081","NA","330831","805","New experiment","NA","0","0","0","yes","1024"
"undefined","undefined","undefined","undefined","black","no","legacy","0","uniform","undefined","undefined","undefined","25","25","51","25","25","NA","25","25","0","0","0","25","25","0","25","0","NA","25","0","Thu 06 Jun 2019 12:13:31 PM PDT","500","1000","The main experiment item","yes","NA","ABX_v3.osexp","/home/ubuntu/Desktop/panara","no","no","mono","no","18","no","white","no","yes","768","25","25","/home/ubuntu/Desktop/panara/subject-705.csv","Jazzy James","3.1.3","4.2.1.wav","4.2.1.wav","4.2.3.wav","0","0","NA","0","NA","1132","NA","1132","NA","181275","]","2","1024","2","48000","-16","experiment","4.2.1.wav","4.2.3.wav","4.2.1.wav","705","odd","337374","339809","339309","338591","NA","NA","336374","340585","803","NA","NA","336372","341717","NA","336371","182081","NA","336374","805","New experiment","NA","0","0","0","yes","1024"
"undefined","undefined","undefined","undefined","black","no","legacy","0","uniform","undefined","undefined","undefined","26","26","53","26","26","NA","26","26","0","0","0","26","26","0","26","0","NA","26","0","Thu 06 Jun 2019 12:13:31 PM PDT","500","1000","The main experiment item","yes","NA","ABX_v3.osexp","/home/ubuntu/Desktop/panara","yes","no","mono","no","18","no","white","no","yes","768","26","26","/home/ubuntu/Desktop/panara/subject-705.csv","Jazzy James","3.1.3","1.2.5.wav","1.2.3.wav","1.2.3.wav","0","1","NA","1","NA","1569","NA","1569","NA","181275","]","2","1024","2","48000","-16","experiment","1.2.3.wav","1.2.5.wav","1.2.3.wav","705","odd","342890","345461","344961","344182","NA","NA","341890","346244","803","NA","NA","341887","347813","NA","341887","182081","NA","341890","805","New experiment","NA","0","0","0","yes","1024"
"undefined","undefined","undefined","undefined","black","no","legacy","0","uniform","undefined","undefined","undefined","27","27","55","27","27","NA","27","27","0","0","0","27","27","0","27","0","NA","27","0","Thu 06 Jun 2019 12:13:31 PM PDT","500","1000","The main experiment item","yes","NA","ABX_v3.osexp","/home/ubuntu/Desktop/panara","yes","no","mono","no","18","no","white","no","yes","768","27","27","/home/ubuntu/Desktop/panara/subject-705.csv","Jazzy James","3.1.3","3.1.4.wav","3.1.2.wav","3.1.2.wav","0","1","NA","1","NA","976","NA","976","NA","181275","]","2","1024","2","48000","-16","experiment","3.1.2.wav","3.1.4.wav","3.1.2.wav","705","odd","348975","351547","351047","350269","NA","NA","347975","352324","803","NA","NA","347972","353301","NA","347972","182081","NA","347975","805","New experiment","NA","0","0","0","yes","1024"
"undefined","undefined","undefined","undefined","black","no","legacy","0","uniform","undefined","undefined","undefined","28","28","57","28","28","NA","28","28","0","0","0","28","28","0","28","0","NA","28","0","Thu 06 Jun 2019 12:13:31 PM PDT","500","1000","The main experiment item","yes","NA","ABX_v3.osexp","/home/ubuntu/Desktop/panara","yes","no","mono","no","18","no","white","no","yes","768","28","28","/home/ubuntu/Desktop/panara/subject-705.csv","Jazzy James","3.1.3","2.1.3.wav","2.1.1.wav","2.1.1.wav","0","0","NA","0","NA","1277","NA","1277","NA","181275","]","2","1024","2","48000","-16","experiment","2.1.1.wav","2.1.3.wav","2.1.1.wav","705","odd","354494","356997","356497","355743","NA","NA","353494","357750","803","NA","NA","353492","359028","NA","353492","182081","NA","353494","805","New experiment","NA","0","0","0","yes","1024"
"undefined","undefined","undefined","undefined","black","no","legacy","0","uniform","undefined","undefined","undefined","29","29","59","29","29","NA","29","29","0","0","0","29","29","0","29","0","NA","29","0","Thu 06 Jun 2019 12:13:31 PM PDT","500","1000","The main experiment item","yes","NA","ABX_v3.osexp","/home/ubuntu/Desktop/panara","no","no","mono","no","18","no","white","no","yes","768","29","29","/home/ubuntu/Desktop/panara/subject-705.csv","Jazzy James","3.1.3","4.1.2.wav","4.1.4.wav","4.1.4.wav","0","0","NA","0","NA","1033","NA","1033","NA","181275","]","2","1024","2","48000","-16","experiment","4.1.2.wav","4.1.4.wav","4.1.4.wav","705","odd","360176","362655","362155","361435","NA","NA","359176","363411","803","NA","NA","359173","364445","NA","359173","182081","NA","359176","805","New experiment","NA","0","0","0","yes","1024"
"undefined","undefined","undefined","undefined","black","no","legacy","0","uniform","undefined","undefined","undefined","30","30","61","30","30","NA","30","30","0","0","0","30","30","0","30","0","NA","30","0","Thu 06 Jun 2019 12:13:31 PM PDT","500","1000","The main experiment item","yes","NA","ABX_v3.osexp","/home/ubuntu/Desktop/panara","yes","no","mono","no","18","no","white","no","yes","768","30","30","/home/ubuntu/Desktop/panara/subject-705.csv","Jazzy James","3.1.3","4.2.4.wav","4.2.4.wav","4.2.2.wav","0","1","NA","1","NA","988","NA","988","NA","181275","]","2","1024","2","48000","-16","experiment","4.2.2.wav","4.2.4.wav","4.2.4.wav","705","odd","365616","368090","367590","366837","NA","NA","364616","368808","803","NA","NA","364614","369796","NA","364614","182081","NA","364616","805","New experiment","NA","0","0","0","yes","1024"
"undefined","undefined","undefined","undefined","black","no","legacy","0","uniform","undefined","undefined","undefined","31","31","63","31","31","NA","31","31","0","0","0","31","31","0","31","0","NA","31","0","Thu 06 Jun 2019 12:13:31 PM PDT","500","1000","The main experiment item","yes","NA","ABX_v3.osexp","/home/ubuntu/Desktop/panara","yes","no","mono","no","18","no","white","no","yes","768","31","31","/home/ubuntu/Desktop/panara/subject-705.csv","Jazzy James","3.1.3","4.1.4.wav","4.1.2.wav","4.1.2.wav","0","1","NA","1","NA","980","NA","980","NA","181275","]","2","1024","2","48000","-16","experiment","4.1.2.wav","4.1.4.wav","4.1.2.wav","705","odd","370977","373429","372929","372208","NA","NA","369976","374183","803","NA","NA","369974","375163","NA","369974","182081","NA","369977","805","New experiment","NA","0","0","0","yes","1024"
"undefined","undefined","undefined","undefined","black","no","legacy","0","uniform","undefined","undefined","undefined","32","32","65","32","32","NA","32","32","0","0","0","32","32","0","32","0","NA","32","0","Thu 06 Jun 2019 12:13:31 PM PDT","500","1000","The main experiment item","yes","NA","ABX_v3.osexp","/home/ubuntu/Desktop/panara","yes","no","mono","no","18","no","white","no","yes","768","32","32","/home/ubuntu/Desktop/panara/subject-705.csv","Jazzy James","3.1.3","1.1.5.wav","1.1.5.wav","1.1.3.wav","0","1","NA","1","NA","1778","NA","1778","NA","181275","]","2","1024","2","48000","-16","experiment","1.1.3.wav","1.1.5.wav","1.1.5.wav","705","odd","376286","378862","378362","377583","NA","NA","375285","379666","803","NA","NA","375283","381444","NA","375283","182081","NA","375286","805","New experiment","NA","0","0","0","yes","1024"
"undefined","undefined","undefined","undefined","black","no","legacy","0","uniform","undefined","undefined","undefined","33","33","67","33","33","NA","33","33","0","0","0","33","33","0","33","0","NA","33","0","Thu 06 Jun 2019 12:13:31 PM PDT","500","1000","The main experiment item","yes","NA","ABX_v3.osexp","/home/ubuntu/Desktop/panara","no","no","mono","no","18","no","white","no","yes","768","33","33","/home/ubuntu/Desktop/panara/subject-705.csv","Jazzy James","3.1.3","2.1.2.wav","2.1.2.wav","2.1.4.wav","0","1","NA","1","NA","1582","NA","1582","NA","181275","]","2","1024","2","48000","-16","experiment","2.1.2.wav","2.1.4.wav","2.1.2.wav","705","odd","382639","385140","384640","383889","NA","NA","381638","385901","803","NA","NA","381636","387484","NA","381636","182081","NA","381639","805","New experiment","NA","0","0","0","yes","1024"
"undefined","undefined","undefined","undefined","black","no","legacy","0","uniform","undefined","undefined","undefined","34","34","69","34","34","NA","34","34","0","0","0","34","34","0","34","0","NA","34","0","Thu 06 Jun 2019 12:13:31 PM PDT","500","1000","The main experiment item","yes","NA","ABX_v3.osexp","/home/ubuntu/Desktop/panara","yes","no","mono","no","18","no","white","no","yes","768","34","34","/home/ubuntu/Desktop/panara/subject-705.csv","Jazzy James","3.1.3","5.2.5.wav","5.2.3.wav","5.2.3.wav","0","0","NA","0","NA","1069","NA","1069","NA","181275","]","2","1024","2","48000","-16","experiment","5.2.3.wav","5.2.5.wav","5.2.3.wav","705","odd","388639","391114","390614","389893","NA","NA","387638","391870","803","NA","NA","387636","392940","NA","387636","182081","NA","387639","805","New experiment","NA","0","0","0","yes","1024"
"undefined","undefined","undefined","undefined","black","no","legacy","0","uniform","undefined","undefined","undefined","35","35","71","35","35","NA","35","35","0","0","0","35","35","0","35","0","NA","35","0","Thu 06 Jun 2019 12:13:31 PM PDT","500","1000","The main experiment item","yes","NA","ABX_v3.osexp","/home/ubuntu/Desktop/panara","yes","no","mono","no","18","no","white","no","yes","768","35","35","/home/ubuntu/Desktop/panara/subject-705.csv","Jazzy James","3.1.3","2.2.5.wav","2.2.5.wav","2.2.3.wav","0","1","NA","1","NA","2866","NA","2866","NA","181275","]","2","1024","2","48000","-16","experiment","2.2.3.wav","2.2.5.wav","2.2.5.wav","705","odd","394067","396531","396031","395315","NA","NA","393067","397288","803","NA","NA","393065","400154","NA","393065","182081","NA","393067","805","New experiment","NA","0","0","0","yes","1024"
"undefined","undefined","undefined","undefined","black","no","legacy","0","uniform","undefined","undefined","undefined","36","36","73","36","36","NA","36","36","0","0","0","36","36","0","36","0","NA","36","0","Thu 06 Jun 2019 12:13:31 PM PDT","500","1000","The main experiment item","yes","NA","ABX_v3.osexp","/home/ubuntu/Desktop/panara","no","no","mono","no","18","no","white","no","yes","768","36","36","/home/ubuntu/Desktop/panara/subject-705.csv","Jazzy James","3.1.3","2.2.2.wav","2.2.2.wav","2.2.4.wav","0","0","NA","0","NA","2481","NA","2481","NA","181275","]","2","1024","2","48000","-16","experiment","2.2.2.wav","2.2.4.wav","2.2.2.wav","705","odd","401339","403780","403280","402562","NA","NA","400339","404498","803","NA","NA","400336","406979","NA","400336","182081","NA","400339","805","New experiment","NA","0","0","0","yes","1024"
"undefined","undefined","undefined","undefined","black","no","legacy","0","uniform","undefined","undefined","undefined","37","37","75","37","37","NA","37","37","0","0","0","37","37","0","37","0","NA","37","0","Thu 06 Jun 2019 12:13:31 PM PDT","500","1000","The main experiment item","yes","NA","ABX_v3.osexp","/home/ubuntu/Desktop/panara","no","no","mono","no","18","no","white","no","yes","768","37","37","/home/ubuntu/Desktop/panara/subject-705.csv","Jazzy James","3.1.3","1.1.2.wav","1.1.2.wav","1.1.4.wav","0","0","NA","0","NA","1406","NA","1406","NA","181275","]","2","1024","2","48000","-16","experiment","1.1.2.wav","1.1.4.wav","1.1.2.wav","705","odd","408173","410798","410298","409490","NA","NA","407173","411557","803","NA","NA","407170","412963","NA","407170","182081","NA","407173","805","New experiment","NA","0","0","0","yes","1024"
"undefined","undefined","undefined","undefined","black","no","legacy","0","uniform","undefined","undefined","undefined","38","38","77","38","38","NA","38","38","0","0","0","38","38","0","38","0","NA","38","0","Thu 06 Jun 2019 12:13:31 PM PDT","500","1000","The main experiment item","yes","NA","ABX_v3.osexp","/home/ubuntu/Desktop/panara","yes","no","mono","no","18","no","white","no","yes","768","38","38","/home/ubuntu/Desktop/panara/subject-705.csv","Jazzy James","3.1.3","4.1.5.wav","4.1.5.wav","4.1.3.wav","0","1","NA","1","NA","3616","NA","3616","NA","181275","]","2","1024","2","48000","-16","experiment","4.1.3.wav","4.1.5.wav","4.1.5.wav","705","odd","414143","416618","416118","415363","NA","NA","413143","417346","803","NA","NA","413140","420963","NA","413140","182081","NA","413143","805","New experiment","NA","0","0","0","yes","1024"
"undefined","undefined","undefined","undefined","black","no","legacy","0","uniform","undefined","undefined","undefined","39","39","79","39","39","NA","39","39","0","0","0","39","39","0","39","0","NA","39","0","Thu 06 Jun 2019 12:13:31 PM PDT","500","1000","The main experiment item","yes","NA","ABX_v3.osexp","/home/ubuntu/Desktop/panara","yes","no","mono","no","18","no","white","no","yes","768","39","39","/home/ubuntu/Desktop/panara/subject-705.csv","Jazzy James","3.1.3","4.2.5.wav","4.2.3.wav","4.2.3.wav","0","0","NA","0","NA","1719","NA","1719","NA","181275","]","2","1024","2","48000","-16","experiment","4.2.3.wav","4.2.5.wav","4.2.3.wav","705","odd","422132","424599","424099","423347","NA","NA","421132","425354","803","NA","NA","421129","427074","NA","421129","182081","NA","421132","805","New experiment","NA","0","0","0","yes","1024"
"undefined","undefined","undefined","undefined","black","no","legacy","0","uniform","undefined","undefined","undefined","40","40","81","40","40","NA","40","40","0","0","0","40","40","0","40","0","NA","40","0","Thu 06 Jun 2019 12:13:31 PM PDT","500","1000","The main experiment item","yes","NA","ABX_v3.osexp","/home/ubuntu/Desktop/panara","yes","no","mono","no","18","no","white","no","yes","768","40","40","/home/ubuntu/Desktop/panara/subject-705.csv","Jazzy James","3.1.3","4.2.4.wav","4.2.2.wav","4.2.2.wav","0","1","NA","1","NA","1145","NA","1145","NA","181275","]","2","1024","2","48000","-16","experiment","4.2.2.wav","4.2.4.wav","4.2.2.wav","705","odd","428204","430700","430200","429448","NA","NA","427203","431425","803","NA","NA","427201","432570","NA","427201","182081","NA","427204","805","New experiment","NA","0","0","0","yes","1024"
"undefined","undefined","undefined","undefined","black","no","legacy","0","uniform","undefined","undefined","undefined","41","41","83","41","41","NA","41","41","0","0","0","41","41","0","41","0","NA","41","0","Thu 06 Jun 2019 12:13:31 PM PDT","500","1000","The main experiment item","yes","NA","ABX_v3.osexp","/home/ubuntu/Desktop/panara","yes","no","mono","no","18","no","white","no","yes","768","41","41","/home/ubuntu/Desktop/panara/subject-705.csv","Jazzy James","3.1.3","2.1.3.wav","2.1.3.wav","2.1.1.wav","0","1","NA","1","NA","1245","NA","1245","NA","181275","]","2","1024","2","48000","-16","experiment","2.1.1.wav","2.1.3.wav","2.1.3.wav","705","odd","433736","436232","435732","434989","NA","NA","432736","436988","803","NA","NA","432734","438233","NA","432734","182081","NA","432736","805","New experiment","NA","0","0","0","yes","1024"
"undefined","undefined","undefined","undefined","black","no","legacy","0","uniform","undefined","undefined","undefined","42","42","85","42","42","NA","42","42","0","0","0","42","42","0","42","0","NA","42","0","Thu 06 Jun 2019 12:13:31 PM PDT","500","1000","The main experiment item","yes","NA","ABX_v3.osexp","/home/ubuntu/Desktop/panara","yes","no","mono","no","18","no","white","no","yes","768","42","42","/home/ubuntu/Desktop/panara/subject-705.csv","Jazzy James","3.1.3","2.1.5.wav","2.1.3.wav","2.1.3.wav","0","1","NA","1","NA","1393","NA","1393","NA","181275","]","2","1024","2","48000","-16","experiment","2.1.3.wav","2.1.5.wav","2.1.3.wav","705","odd","439435","441943","441443","440690","NA","NA","438435","442696","803","NA","NA","438432","444089","NA","438432","182081","NA","438435","805","New experiment","NA","0","0","0","yes","1024"
"undefined","undefined","undefined","undefined","black","no","legacy","0","uniform","undefined","undefined","undefined","43","43","87","43","43","NA","43","43","0","0","0","43","43","0","43","0","NA","43","0","Thu 06 Jun 2019 12:13:31 PM PDT","500","1000","The main experiment item","yes","NA","ABX_v3.osexp","/home/ubuntu/Desktop/panara","no","no","mono","no","18","no","white","no","yes","768","43","43","/home/ubuntu/Desktop/panara/subject-705.csv","Jazzy James","3.1.3","2.2.1.wav","2.2.3.wav","2.2.3.wav","0","0","NA","0","NA","1400","NA","1400","NA","181275","]","2","1024","2","48000","-16","experiment","2.2.1.wav","2.2.3.wav","2.2.3.wav","705","odd","445290","447773","447273","446551","NA","NA","444289","448529","803","NA","NA","444287","449930","NA","444286","182081","NA","444290","805","New experiment","NA","0","0","0","yes","1024"
"undefined","undefined","undefined","undefined","black","no","legacy","0","uniform","undefined","undefined","undefined","44","44","89","44","44","NA","44","44","0","0","0","44","44","0","44","0","NA","44","0","Thu 06 Jun 2019 12:13:31 PM PDT","500","1000","The main experiment item","yes","NA","ABX_v3.osexp","/home/ubuntu/Desktop/panara","yes","no","mono","no","18","no","white","no","yes","768","44","44","/home/ubuntu/Desktop/panara/subject-705.csv","Jazzy James","3.1.3","1.1.3.wav","1.1.3.wav","1.1.1.wav","0","0","NA","0","NA","3110","NA","3110","NA","181275","]","2","1024","2","48000","-16","experiment","1.1.1.wav","1.1.3.wav","1.1.3.wav","705","odd","451093","453655","453155","452375","NA","NA","450093","454459","803","NA","NA","450090","457570","NA","450090","182081","NA","450093","805","New experiment","NA","0","0","0","yes","1024"
"undefined","undefined","undefined","undefined","black","no","legacy","0","uniform","undefined","undefined","undefined","45","45","91","45","45","NA","45","45","0","0","0","45","45","0","45","0","NA","45","0","Thu 06 Jun 2019 12:13:31 PM PDT","500","1000","The main experiment item","yes","NA","ABX_v3.osexp","/home/ubuntu/Desktop/panara","yes","no","mono","no","18","no","white","no","yes","768","45","45","/home/ubuntu/Desktop/panara/subject-705.csv","Jazzy James","3.1.3","1.1.3.wav","1.1.1.wav","1.1.1.wav","0","1","NA","1","NA","2437","NA","2437","NA","181275","]","2","1024","2","48000","-16","experiment","1.1.1.wav","1.1.3.wav","1.1.1.wav","705","odd","458736","461334","460834","460055","NA","NA","457736","462116","803","NA","NA","457733","464554","NA","457733","182081","NA","457736","805","New experiment","NA","0","0","0","yes","1024"
"undefined","undefined","undefined","undefined","black","no","legacy","0","uniform","undefined","undefined","undefined","46","46","93","46","46","NA","46","46","0","0","0","46","46","0","46","0","NA","46","0","Thu 06 Jun 2019 12:13:31 PM PDT","500","1000","The main experiment item","yes","NA","ABX_v3.osexp","/home/ubuntu/Desktop/panara","yes","no","mono","no","18","no","white","no","yes","768","46","46","/home/ubuntu/Desktop/panara/subject-705.csv","Jazzy James","3.1.3","3.2.3.wav","3.2.3.wav","3.2.1.wav","0","1","NA","1","NA","1234","NA","1234","NA","181275","]","2","1024","2","48000","-16","experiment","3.2.1.wav","3.2.3.wav","3.2.3.wav","705","odd","465714","468210","467710","466958","NA","NA","464714","468966","803","NA","NA","464711","470200","NA","464711","182081","NA","464714","805","New experiment","NA","0","0","0","yes","1024"
"undefined","undefined","undefined","undefined","black","no","legacy","0","uniform","undefined","undefined","undefined","47","47","95","47","47","NA","47","47","0","0","0","47","47","0","47","0","NA","47","0","Thu 06 Jun 2019 12:13:31 PM PDT","500","1000","The main experiment item","yes","NA","ABX_v3.osexp","/home/ubuntu/Desktop/panara","no","no","mono","no","18","no","white","no","yes","768","47","47","/home/ubuntu/Desktop/panara/subject-705.csv","Jazzy James","3.1.3","2.2.2.wav","2.2.4.wav","2.2.4.wav","0","1","NA","1","NA","1028","NA","1028","NA","181275","]","2","1024","2","48000","-16","experiment","2.2.2.wav","2.2.4.wav","2.2.4.wav","705","odd","471381","473841","473341","472620","NA","NA","470380","474597","803","NA","NA","470377","475625","NA","470377","182081","NA","470381","805","New experiment","NA","0","0","0","yes","1024"
"undefined","undefined","undefined","undefined","black","no","legacy","0","uniform","undefined","undefined","undefined","48","48","97","48","48","NA","48","48","0","0","0","48","48","0","48","0","NA","48","0","Thu 06 Jun 2019 12:13:31 PM PDT","500","1000","The main experiment item","yes","NA","ABX_v3.osexp","/home/ubuntu/Desktop/panara","no","no","mono","no","18","no","white","no","yes","768","48","48","/home/ubuntu/Desktop/panara/subject-705.csv","Jazzy James","3.1.3","1.1.2.wav","1.1.4.wav","1.1.4.wav","0","0","NA","0","NA","1878","NA","1878","NA","181275","]","2","1024","2","48000","-16","experiment","1.1.2.wav","1.1.4.wav","1.1.4.wav","705","odd","476793","479403","478903","478104","NA","NA","475793","480186","803","NA","NA","475791","482064","NA","475790","182081","NA","475793","805","New experiment","NA","0","0","0","yes","1024"
"undefined","undefined","undefined","undefined","black","no","legacy","0","uniform","undefined","undefined","undefined","49","49","99","49","49","NA","49","49","0","0","0","49","49","0","49","0","NA","49","0","Thu 06 Jun 2019 12:13:31 PM PDT","500","1000","The main experiment item","yes","NA","ABX_v3.osexp","/home/ubuntu/Desktop/panara","yes","no","mono","no","18","no","white","no","yes","768","49","49","/home/ubuntu/Desktop/panara/subject-705.csv","Jazzy James","3.1.3","5.2.3.wav","5.2.3.wav","5.2.1.wav","0","1","NA","1","NA","1658","NA","1658","NA","181275","]","2","1024","2","48000","-16","experiment","5.2.1.wav","5.2.3.wav","5.2.3.wav","705","odd","483235","485717","485217","484465","NA","NA","482235","486421","803","NA","NA","482232","488080","NA","482232","182081","NA","482235","805","New experiment","NA","0","0","0","yes","1024"
"undefined","undefined","undefined","undefined","black","no","legacy","0","uniform","undefined","undefined","undefined","50","50","101","50","50","NA","50","50","0","0","0","50","50","0","50","0","NA","50","0","Thu 06 Jun 2019 12:13:31 PM PDT","500","1000","The main experiment item","yes","NA","ABX_v3.osexp","/home/ubuntu/Desktop/panara","no","no","mono","no","18","no","white","no","yes","768","50","50","/home/ubuntu/Desktop/panara/subject-705.csv","Jazzy James","3.1.3","3.2.2.wav","3.2.2.wav","3.2.4.wav","0","1","space","1","NA","1700","3642","1700","NA","181275","]","2","1024","2","48000","-16","experiment","3.2.2.wav","3.2.4.wav","3.2.2.wav","705","odd","492900","495468","494968","494187","488254","NA","491899","496212","803","NA","NA","488251","497913","NA","488251","182081","NA","491900","805","New experiment","NA","0","0","0","yes","1024"
"undefined","undefined","undefined","undefined","black","no","legacy","0","uniform","undefined","undefined","undefined","51","51","103","51","51","NA","51","51","0","0","0","51","51","0","51","0","NA","51","0","Thu 06 Jun 2019 12:13:31 PM PDT","500","1000","The main experiment item","yes","NA","ABX_v3.osexp","/home/ubuntu/Desktop/panara","no","no","mono","no","18","no","white","no","yes","768","51","51","/home/ubuntu/Desktop/panara/subject-705.csv","Jazzy James","3.1.3","3.2.3.wav","3.2.3.wav","3.2.5.wav","0","1","space","1","NA","947","3642","947","NA","181275","]","2","1024","2","48000","-16","experiment","3.2.3.wav","3.2.5.wav","3.2.3.wav","705","odd","499077","501588","501088","500338","488254","NA","498076","502373","803","NA","NA","498074","503320","NA","498074","182081","NA","498077","805","New experiment","NA","0","0","0","yes","1024"
"undefined","undefined","undefined","undefined","black","no","legacy","0","uniform","undefined","undefined","undefined","52","52","105","52","52","NA","52","52","0","0","0","52","52","0","52","0","NA","52","0","Thu 06 Jun 2019 12:13:31 PM PDT","500","1000","The main experiment item","yes","NA","ABX_v3.osexp","/home/ubuntu/Desktop/panara","no","no","mono","no","18","no","white","no","yes","768","52","52","/home/ubuntu/Desktop/panara/subject-705.csv","Jazzy James","3.1.3","3.1.1.wav","3.1.1.wav","3.1.3.wav","0","1","space","1","NA","3044","3642","3044","NA","181275","]","2","1024","2","48000","-16","experiment","3.1.1.wav","3.1.3.wav","3.1.1.wav","705","odd","504494","506987","506487","505734","488254","NA","503494","507740","803","NA","NA","503491","510784","NA","503491","182081","NA","503494","805","New experiment","NA","0","0","0","yes","1024"
"undefined","undefined","undefined","undefined","black","no","legacy","0","uniform","undefined","undefined","undefined","53","53","107","53","53","NA","53","53","0","0","0","53","53","0","53","0","NA","53","0","Thu 06 Jun 2019 12:13:31 PM PDT","500","1000","The main experiment item","yes","NA","ABX_v3.osexp","/home/ubuntu/Desktop/panara","no","no","mono","no","18","no","white","no","yes","768","53","53","/home/ubuntu/Desktop/panara/subject-705.csv","Jazzy James","3.1.3","2.1.2.wav","2.1.4.wav","2.1.4.wav","0","0","space","0","NA","1552","3642","1552","NA","181275","]","2","1024","2","48000","-16","experiment","2.1.2.wav","2.1.4.wav","2.1.4.wav","705","odd","511938","514439","513938","513187","488254","NA","510938","515191","803","NA","NA","510936","516744","NA","510936","182081","NA","510938","805","New experiment","NA","0","0","0","yes","1024"
"undefined","undefined","undefined","undefined","black","no","legacy","0","uniform","undefined","undefined","undefined","54","54","109","54","54","NA","54","54","0","0","0","54","54","0","54","0","NA","54","0","Thu 06 Jun 2019 12:13:31 PM PDT","500","1000","The main experiment item","yes","NA","ABX_v3.osexp","/home/ubuntu/Desktop/panara","yes","no","mono","no","18","no","white","no","yes","768","0","53","/home/ubuntu/Desktop/panara/subject-705.csv","Jazzy James","3.1.3","1.1.3.wav","1.2.3.wav","1.2.1.wav","0","1","space","1","NA","1577","3642","1577","NA","181275","]","2","1024","2","48000","-16","experiment","1.2.1.wav","1.1.3.wav","1.2.3.wav","705","odd","517927","520496","519996","519216","488254","NA","516927","521278","803","NA","NA","516924","522856","516854","516924","182081","NA","516927","805","New experiment","NA","0","0","0","yes","1024"
"undefined","undefined","undefined","undefined","black","no","legacy","0","uniform","undefined","undefined","undefined","55","55","111","55","55","NA","55","55","0","0","0","55","55","0","55","0","NA","55","0","Thu 06 Jun 2019 12:13:31 PM PDT","500","1000","The main experiment item","yes","NA","ABX_v3.osexp","/home/ubuntu/Desktop/panara","no","no","mono","no","18","no","white","no","yes","768","1","53","/home/ubuntu/Desktop/panara/subject-705.csv","Jazzy James","3.1.3","1.1.2.wav","2.1.2.wav","2.1.4.wav","0","0","space","0","NA","557","3642","557","NA","181275","]","2","1024","2","48000","-16","experiment","1.1.2.wav","2.1.4.wav","2.1.2.wav","705","odd","524014","526575","526075","525333","488254","NA","523014","527330","803","NA","NA","523011","527888","516854","523011","182081","NA","523014","805","New experiment","NA","0","0","0","yes","1024"
"undefined","undefined","undefined","undefined","black","no","legacy","0","uniform","undefined","undefined","undefined","56","56","113","56","56","NA","56","56","0","0","0","56","56","0","56","0","NA","56","0","Thu 06 Jun 2019 12:13:31 PM PDT","500","1000","The main experiment item","yes","NA","ABX_v3.osexp","/home/ubuntu/Desktop/panara","yes","no","mono","no","18","no","white","no","yes","768","2","53","/home/ubuntu/Desktop/panara/subject-705.csv","Jazzy James","3.1.3","2.1.3.wav","2.1.1.wav","4.1.1.wav","0","1","space","1","NA","927","3642","927","NA","181275","]","2","1024","2","48000","-16","experiment","4.1.1.wav","2.1.3.wav","2.1.1.wav","705","odd","529066","531576","531076","530324","488254","NA","528065","532303","803","NA","NA","528063","533231","516854","528063","182081","NA","528065","805","New experiment","NA","0","0","0","yes","1024"
"undefined","undefined","undefined","undefined","black","no","legacy","0","uniform","undefined","undefined","undefined","57","57","115","57","57","NA","57","57","0","0","0","57","57","0","57","0","NA","57","0","Thu 06 Jun 2019 12:13:31 PM PDT","500","1000","The main experiment item","yes","NA","ABX_v3.osexp","/home/ubuntu/Desktop/panara","no","no","mono","no","18","no","white","no","yes","768","3","53","/home/ubuntu/Desktop/panara/subject-705.csv","Jazzy James","3.1.3","1.1.2.wav","3.1.2.wav","3.1.4.wav","0","0","space","0","NA","540","3642","540","NA","181275","]","2","1024","2","48000","-16","experiment","1.1.2.wav","3.1.4.wav","3.1.2.wav","705","odd","534442","537039","536538","535756","488254","NA","533441","537819","803","NA","NA","533439","538359","516854","533439","182081","NA","533442","805","New experiment","NA","0","0","0","yes","1024"
"undefined","undefined","undefined","undefined","black","no","legacy","0","uniform","undefined","undefined","undefined","58","58","117","58","58","NA","58","58","0","0","0","58","58","0","58","0","NA","58","0","Thu 06 Jun 2019 12:13:31 PM PDT","500","1000","The main experiment item","yes","NA","ABX_v3.osexp","/home/ubuntu/Desktop/panara","no","no","mono","no","18","no","white","no","yes","768","4","53","/home/ubuntu/Desktop/panara/subject-705.csv","Jazzy James","3.1.3","2.2.1.wav","2.1.1.wav","2.1.3.wav","0","0","space","0","NA","816","3642","816","NA","181275","]","2","1024","2","48000","-16","experiment","2.2.1.wav","2.1.3.wav","2.1.1.wav","705","odd","539545","542028","541528","540779","488254","NA","538544","542775","803","NA","NA","538542","543591","516854","538542","182081","NA","538545","805","New experiment","NA","0","0","0","yes","1024"
"undefined","undefined","undefined","undefined","black","no","legacy","0","uniform","undefined","undefined","undefined","59","59","119","59","59","NA","59","59","0","0","0","59","59","0","59","0","NA","59","0","Thu 06 Jun 2019 12:13:31 PM PDT","500","1000","The main experiment item","yes","NA","ABX_v3.osexp","/home/ubuntu/Desktop/panara","no","no","mono","no","18","no","white","no","yes","768","5","53","/home/ubuntu/Desktop/panara/subject-705.csv","Jazzy James","3.1.3","4.2.3.wav","4.2.5.wav","3.2.5.wav","0","1","space","1","NA","1324","3642","1324","NA","181275","]","2","1024","2","48000","-16","experiment","4.2.3.wav","3.2.5.wav","4.2.5.wav","705","odd","544780","547269","546769","546018","488254","NA","543780","548050","803","NA","NA","543778","549375","516854","543777","182081","NA","543780","805","New experiment","NA","0","0","0","yes","1024"
"undefined","undefined","undefined","undefined","black","no","legacy","0","uniform","undefined","undefined","undefined","60","60","121","60","60","NA","60","60","0","0","0","60","60","0","60","0","NA","60","0","Thu 06 Jun 2019 12:13:31 PM PDT","500","1000","The main experiment item","yes","NA","ABX_v3.osexp","/home/ubuntu/Desktop/panara","no","no","mono","no","18","no","white","no","yes","768","6","53","/home/ubuntu/Desktop/panara/subject-705.csv","Jazzy James","3.1.3","1.1.1.wav","2.1.1.wav","2.1.3.wav","0","1","space","1","NA","1391","3642","1391","NA","181275","]","2","1024","2","48000","-16","experiment","1.1.1.wav","2.1.3.wav","2.1.1.wav","705","odd","550541","553100","552600","551850","488254","NA","549541","553854","803","NA","NA","549538","555246","516854","549538","182081","NA","549541","805","New experiment","NA","0","0","0","yes","1024"
"undefined","undefined","undefined","undefined","black","no","legacy","0","uniform","undefined","undefined","undefined","61","61","123","61","61","NA","61","61","0","0","0","61","61","0","61","0","NA","61","0","Thu 06 Jun 2019 12:13:31 PM PDT","500","1000","The main experiment item","yes","NA","ABX_v3.osexp","/home/ubuntu/Desktop/panara","no","no","mono","no","18","no","white","no","yes","768","7","53","/home/ubuntu/Desktop/panara/subject-705.csv","Jazzy James","3.1.3","1.2.2.wav","3.2.2.wav","3.2.4.wav","0","0","space","0","NA","462","3642","462","NA","181275","]","2","1024","2","48000","-16","experiment","1.2.2.wav","3.2.4.wav","3.2.2.wav","705","odd","556419","558981","558481","557699","488254","NA","555419","559735","803","NA","NA","555416","560198","516854","555416","182081","NA","555419","805","New experiment","NA","0","0","0","yes","1024"
"undefined","undefined","undefined","undefined","black","no","legacy","0","uniform","undefined","undefined","undefined","62","62","125","62","62","NA","62","62","0","0","0","62","62","0","62","0","NA","62","0","Thu 06 Jun 2019 12:13:31 PM PDT","500","1000","The main experiment item","yes","NA","ABX_v3.osexp","/home/ubuntu/Desktop/panara","no","no","mono","no","18","no","white","no","yes","768","8","53","/home/ubuntu/Desktop/panara/subject-705.csv","Jazzy James","3.1.3","4.1.3.wav","4.2.3.wav","4.2.5.wav","0","1","space","1","NA","1632","3642","1632","NA","181275","]","2","1024","2","48000","-16","experiment","4.1.3.wav","4.2.5.wav","4.2.3.wav","705","odd","561382","563881","563381","562640","488254","NA","560382","564621","803","NA","NA","560379","566254","516854","560379","182081","NA","560382","805","New experiment","NA","0","0","0","yes","1024"
"undefined","undefined","undefined","undefined","black","no","legacy","0","uniform","undefined","undefined","undefined","63","63","127","63","63","NA","63","63","0","0","0","63","63","0","63","0","NA","63","0","Thu 06 Jun 2019 12:13:31 PM PDT","500","1000","The main experiment item","yes","NA","ABX_v3.osexp","/home/ubuntu/Desktop/panara","yes","no","mono","no","18","no","white","no","yes","768","9","53","/home/ubuntu/Desktop/panara/subject-705.csv","Jazzy James","3.1.3","4.2.4.wav","3.2.4.wav","3.2.2.wav","0","0","space","0","NA","470","3642","470","NA","181275","]","2","1024","2","48000","-16","experiment","3.2.2.wav","4.2.4.wav","3.2.4.wav","705","odd","567437","569953","569453","568702","488254","NA","566437","570735","803","NA","NA","566434","571205","516854","566434","182081","NA","566437","805","New experiment","NA","0","0","0","yes","1024"
"undefined","undefined","undefined","undefined","black","no","legacy","0","uniform","undefined","undefined","undefined","64","64","129","64","64","NA","64","64","0","0","0","64","64","0","64","0","NA","64","0","Thu 06 Jun 2019 12:13:31 PM PDT","500","1000","The main experiment item","yes","NA","ABX_v3.osexp","/home/ubuntu/Desktop/panara","yes","no","mono","no","18","no","white","no","yes","768","10","53","/home/ubuntu/Desktop/panara/subject-705.csv","Jazzy James","3.1.3","4.2.5.wav","4.2.3.wav","3.2.3.wav","0","1","space","1","NA","493","3642","493","NA","181275","]","2","1024","2","48000","-16","experiment","3.2.3.wav","4.2.5.wav","4.2.3.wav","705","odd","572350","574830","574330","573586","488254","NA","571349","575608","803","NA","NA","571347","576101","516854","571347","182081","NA","571350","805","New experiment","NA","0","0","0","yes","1024"
"undefined","undefined","undefined","undefined","black","no","legacy","0","uniform","undefined","undefined","undefined","65","65","131","65","65","NA","65","65","0","0","0","65","65","0","65","0","NA","65","0","Thu 06 Jun 2019 12:13:31 PM PDT","500","1000","The main experiment item","yes","NA","ABX_v3.osexp","/home/ubuntu/Desktop/panara","no","no","mono","no","18","no","white","no","yes","768","11","53","/home/ubuntu/Desktop/panara/subject-705.csv","Jazzy James","3.1.3","4.2.2.wav","4.2.4.wav","4.1.4.wav","0","1","space","1","NA","1195","3642","1195","NA","181275","]","2","1024","2","48000","-16","experiment","4.2.2.wav","4.1.4.wav","4.2.4.wav","705","odd","577266","579715","579215","578494","488254","NA","576265","580434","803","NA","NA","576261","581630","516854","576261","182081","NA","576266","805","New experiment","NA","0","0","0","yes","1024"
"undefined","undefined","undefined","undefined","black","no","legacy","0","uniform","undefined","undefined","undefined","66","66","133","66","66","NA","66","66","0","0","0","66","66","0","66","0","NA","66","0","Thu 06 Jun 2019 12:13:31 PM PDT","500","1000","The main experiment item","yes","NA","ABX_v3.osexp","/home/ubuntu/Desktop/panara","no","no","mono","no","18","no","white","no","yes","768","12","53","/home/ubuntu/Desktop/panara/subject-705.csv","Jazzy James","3.1.3","4.1.1.wav","4.1.3.wav","3.1.3.wav","0","1","space","1","NA","550","3642","550","NA","181275","]","2","1024","2","48000","-16","experiment","4.1.1.wav","3.1.3.wav","4.1.3.wav","705","odd","582810","585284","584784","584061","488254","NA","581810","586039","803","NA","NA","581807","586590","516854","581807","182081","NA","581810","805","New experiment","NA","0","0","0","yes","1024"
"undefined","undefined","undefined","undefined","black","no","legacy","0","uniform","undefined","undefined","undefined","67","67","135","67","67","NA","67","67","0","0","0","67","67","0","67","0","NA","67","0","Thu 06 Jun 2019 12:13:31 PM PDT","500","1000","The main experiment item","yes","NA","ABX_v3.osexp","/home/ubuntu/Desktop/panara","no","no","mono","no","18","no","white","no","yes","768","13","53","/home/ubuntu/Desktop/panara/subject-705.csv","Jazzy James","3.1.3","2.1.2.wav","1.1.2.wav","1.1.4.wav","0","0","space","0","NA","2178","3642","2178","NA","181275","]","2","1024","2","48000","-16","experiment","2.1.2.wav","1.1.4.wav","1.1.2.wav","705","odd","587766","590333","589833","589053","488254","NA","586766","591107","803","NA","NA","586763","593286","516854","586763","182081","NA","586766","805","New experiment","NA","0","0","0","yes","1024"
"undefined","undefined","undefined","undefined","black","no","legacy","0","uniform","undefined","undefined","undefined","68","68","137","68","68","NA","68","68","0","0","0","68","68","0","68","0","NA","68","0","Thu 06 Jun 2019 12:13:31 PM PDT","500","1000","The main experiment item","yes","NA","ABX_v3.osexp","/home/ubuntu/Desktop/panara","yes","no","mono","no","18","no","white","no","yes","768","14","53","/home/ubuntu/Desktop/panara/subject-705.csv","Jazzy James","3.1.3","4.2.3.wav","4.1.3.wav","4.1.1.wav","0","0","space","0","NA","1609","3642","1609","NA","181275","]","2","1024","2","48000","-16","experiment","4.1.1.wav","4.2.3.wav","4.1.3.wav","705","odd","594465","596952","596452","595730","488254","NA","593465","597708","803","NA","NA","593462","599318","516854","593462","182081","NA","593465","805","New experiment","NA","0","0","0","yes","1024"
"undefined","undefined","undefined","undefined","black","no","legacy","0","uniform","undefined","undefined","undefined","69","69","139","69","69","NA","69","69","0","0","0","69","69","0","69","0","NA","69","0","Thu 06 Jun 2019 12:13:31 PM PDT","500","1000","The main experiment item","yes","NA","ABX_v3.osexp","/home/ubuntu/Desktop/panara","yes","no","mono","no","18","no","white","no","yes","768","15","53","/home/ubuntu/Desktop/panara/subject-705.csv","Jazzy James","3.1.3","1.2.5.wav","3.2.5.wav","3.2.3.wav","0","0","space","0","NA","729","3642","729","NA","181275","]","2","1024","2","48000","-16","experiment","3.2.3.wav","1.2.5.wav","3.2.5.wav","705","odd","600465","603020","602520","601746","488254","NA","599465","603772","803","NA","NA","599462","604501","516854","599462","182081","NA","599465","805","New experiment","NA","0","0","0","yes","1024"
"undefined","undefined","undefined","undefined","black","no","legacy","0","uniform","undefined","undefined","undefined","70","70","141","70","70","NA","70","70","0","0","0","70","70","0","70","0","NA","70","0","Thu 06 Jun 2019 12:13:31 PM PDT","500","1000","The main experiment item","yes","NA","ABX_v3.osexp","/home/ubuntu/Desktop/panara","yes","no","mono","no","18","no","white","no","yes","768","16","53","/home/ubuntu/Desktop/panara/subject-705.csv","Jazzy James","3.1.3","2.2.3.wav","2.2.1.wav","2.1.1.wav","0","1","space","1","NA","604","3642","604","NA","181275","]","2","1024","2","48000","-16","experiment","2.1.1.wav","2.2.3.wav","2.2.1.wav","705","odd","605638","608103","607603","606887","488254","NA","604638","608849","803","NA","NA","604636","609453","516854","604636","182081","NA","604638","805","New experiment","NA","0","0","0","yes","1024"
"undefined","undefined","undefined","undefined","black","no","legacy","0","uniform","undefined","undefined","undefined","71","71","143","71","71","NA","71","71","0","0","0","71","71","0","71","0","NA","71","0","Thu 06 Jun 2019 12:13:31 PM PDT","500","1000","The main experiment item","yes","NA","ABX_v3.osexp","/home/ubuntu/Desktop/panara","no","no","mono","no","18","no","white","no","yes","768","17","53","/home/ubuntu/Desktop/panara/subject-705.csv","Jazzy James","3.1.3","1.2.1.wav","1.1.1.wav","1.1.3.wav","0","0","space","0","NA","927","3642","927","NA","181275","]","2","1024","2","48000","-16","experiment","1.2.1.wav","1.1.3.wav","1.1.1.wav","705","odd","610641","613202","612702","611922","488254","NA","609641","613997","803","NA","NA","609639","614925","516854","609638","182081","NA","609641","805","New experiment","NA","0","0","0","yes","1024"
"undefined","undefined","undefined","undefined","black","no","legacy","0","uniform","undefined","undefined","undefined","72","72","145","72","72","NA","72","72","0","0","0","72","72","0","72","0","NA","72","0","Thu 06 Jun 2019 12:13:31 PM PDT","500","1000","The main experiment item","yes","NA","ABX_v3.osexp","/home/ubuntu/Desktop/panara","no","no","mono","no","18","no","white","no","yes","768","18","53","/home/ubuntu/Desktop/panara/subject-705.csv","Jazzy James","3.1.3","2.2.1.wav","2.2.3.wav","2.1.3.wav","0","1","space","1","NA","1051","3642","1051","NA","181275","]","2","1024","2","48000","-16","experiment","2.2.1.wav","2.1.3.wav","2.2.3.wav","705","odd","616083","618540","618040","617319","488254","NA","615082","619289","803","NA","NA","615080","620341","516854","615080","182081","NA","615083","805","New experiment","NA","0","0","0","yes","1024"
"undefined","undefined","undefined","undefined","black","no","legacy","0","uniform","undefined","undefined","undefined","73","73","147","73","73","NA","73","73","0","0","0","73","73","0","73","0","NA","73","0","Thu 06 Jun 2019 12:13:31 PM PDT","500","1000","The main experiment item","yes","NA","ABX_v3.osexp","/home/ubuntu/Desktop/panara","yes","no","mono","no","18","no","white","no","yes","768","19","53","/home/ubuntu/Desktop/panara/subject-705.csv","Jazzy James","3.1.3","4.2.3.wav","4.2.1.wav","4.1.1.wav","0","1","space","1","NA","1336","3642","1336","NA","181275","]","2","1024","2","48000","-16","experiment","4.1.1.wav","4.2.3.wav","4.2.1.wav","705","odd","621499","623975","623475","622743","488254","NA","620499","624699","803","NA","NA","620497","626036","516854","620497","182081","NA","620499","805","New experiment","NA","0","0","0","yes","1024"
"undefined","undefined","undefined","undefined","black","no","legacy","0","uniform","undefined","undefined","undefined","74","74","149","74","74","NA","74","74","0","0","0","74","74","0","74","0","NA","74","0","Thu 06 Jun 2019 12:13:31 PM PDT","500","1000","The main experiment item","yes","NA","ABX_v3.osexp","/home/ubuntu/Desktop/panara","no","no","mono","no","18","no","white","no","yes","768","20","53","/home/ubuntu/Desktop/panara/subject-705.csv","Jazzy James","3.1.3","2.1.3.wav","2.1.5.wav","4.1.5.wav","0","1","space","1","NA","2529","3642","2529","NA","181275","]","2","1024","2","48000","-16","experiment","2.1.3.wav","4.1.5.wav","2.1.5.wav","705","odd","627209","629712","629212","628469","488254","NA","626209","630451","803","NA","NA","626207","632981","516854","626207","182081","NA","626209","805","New experiment","NA","0","0","0","yes","1024"
"undefined","undefined","undefined","undefined","black","no","legacy","0","uniform","undefined","undefined","undefined","75","75","151","75","75","NA","75","75","0","0","0","75","75","0","75","0","NA","75","0","Thu 06 Jun 2019 12:13:31 PM PDT","500","1000","The main experiment item","yes","NA","ABX_v3.osexp","/home/ubuntu/Desktop/panara","no","no","mono","no","18","no","white","no","yes","768","21","53","/home/ubuntu/Desktop/panara/subject-705.csv","Jazzy James","3.1.3","3.2.1.wav","4.2.1.wav","4.2.3.wav","0","0","space","0","NA","1202","3642","1202","NA","181275","]","2","1024","2","48000","-16","experiment","3.2.1.wav","4.2.3.wav","4.2.1.wav","705","odd","634149","636631","636131","635415","488254","NA","633149","637386","803","NA","NA","633146","638588","516854","633146","182081","NA","633149","805","New experiment","NA","0","0","0","yes","1024"
"undefined","undefined","undefined","undefined","black","no","legacy","0","uniform","undefined","undefined","undefined","76","76","153","76","76","NA","76","76","0","0","0","76","76","0","76","0","NA","76","0","Thu 06 Jun 2019 12:13:31 PM PDT","500","1000","The main experiment item","yes","NA","ABX_v3.osexp","/home/ubuntu/Desktop/panara","no","no","mono","no","18","no","white","no","yes","768","22","53","/home/ubuntu/Desktop/panara/subject-705.csv","Jazzy James","3.1.3","3.1.1.wav","3.2.1.wav","3.2.3.wav","0","1","space","1","NA","2646","3642","2646","NA","181275","]","2","1024","2","48000","-16","experiment","3.1.1.wav","3.2.3.wav","3.2.1.wav","705","odd","639780","642285","641785","641033","488254","NA","638779","643038","803","NA","NA","638777","645684","516854","638777","182081","NA","638780","805","New experiment","NA","0","0","0","yes","1024"
"undefined","undefined","undefined","undefined","black","no","legacy","0","uniform","undefined","undefined","undefined","77","77","155","77","77","NA","77","77","0","0","0","77","77","0","77","0","NA","77","0","Thu 06 Jun 2019 12:13:31 PM PDT","500","1000","The main experiment item","yes","NA","ABX_v3.osexp","/home/ubuntu/Desktop/panara","yes","no","mono","no","18","no","white","no","yes","768","23","53","/home/ubuntu/Desktop/panara/subject-705.csv","Jazzy James","3.1.3","4.1.5.wav","4.1.3.wav","2.1.3.wav","0","1","space","1","NA","1019","3642","1019","NA","181275","]","2","1024","2","48000","-16","experiment","2.1.3.wav","4.1.5.wav","4.1.3.wav","705","odd","646868","649318","648818","648102","488254","NA","645868","650071","803","NA","NA","645866","651091","516854","645866","182081","NA","645868","805","New experiment","NA","0","0","0","yes","1024"
"undefined","undefined","undefined","undefined","black","no","legacy","0","uniform","undefined","undefined","undefined","78","78","157","78","78","NA","78","78","0","0","0","78","78","0","78","0","NA","78","0","Thu 06 Jun 2019 12:13:31 PM PDT","500","1000","The main experiment item","yes","NA","ABX_v3.osexp","/home/ubuntu/Desktop/panara","yes","no","mono","no","18","no","white","no","yes","768","24","53","/home/ubuntu/Desktop/panara/subject-705.csv","Jazzy James","3.1.3","2.2.3.wav","2.1.3.wav","2.1.1.wav","0","1","space","1","NA","1542","3642","1542","NA","181275","]","2","1024","2","48000","-16","experiment","2.1.1.wav","2.2.3.wav","2.1.3.wav","705","odd","652280","654779","654279","653520","488254","NA","651280","655532","803","NA","NA","651277","657075","516854","651277","182081","NA","651280","805","New experiment","NA","0","0","0","yes","1024"
"undefined","undefined","undefined","undefined","black","no","legacy","0","uniform","undefined","undefined","undefined","79","79","159","79","79","NA","79","79","0","0","0","79","79","0","79","0","NA","79","0","Thu 06 Jun 2019 12:13:31 PM PDT","500","1000","The main experiment item","yes","NA","ABX_v3.osexp","/home/ubuntu/Desktop/panara","yes","no","mono","no","18","no","white","no","yes","768","25","53","/home/ubuntu/Desktop/panara/subject-705.csv","Jazzy James","3.1.3","2.1.4.wav","1.1.4.wav","1.1.2.wav","0","1","space","1","NA","1236","3642","1236","NA","181275","]","2","1024","2","48000","-16","experiment","1.1.2.wav","2.1.4.wav","1.1.4.wav","705","odd","658241","660789","660289","659494","488254","NA","657241","661599","803","NA","NA","657238","662836","516854","657238","182081","NA","657241","805","New experiment","NA","0","0","0","yes","1024"
"undefined","undefined","undefined","undefined","black","no","legacy","0","uniform","undefined","undefined","undefined","80","80","161","80","80","NA","80","80","0","0","0","80","80","0","80","0","NA","80","0","Thu 06 Jun 2019 12:13:31 PM PDT","500","1000","The main experiment item","yes","NA","ABX_v3.osexp","/home/ubuntu/Desktop/panara","yes","no","mono","no","18","no","white","no","yes","768","26","53","/home/ubuntu/Desktop/panara/subject-705.csv","Jazzy James","3.1.3","3.1.5.wav","3.2.5.wav","3.2.3.wav","0","1","space","1","NA","1244","3642","1244","NA","181275","]","2","1024","2","48000","-16","experiment","3.2.3.wav","3.1.5.wav","3.2.5.wav","705","odd","664015","666589","666089","665311","488254","NA","663014","667343","803","NA","NA","663012","668588","516854","663012","182081","NA","663015","805","New experiment","NA","0","0","0","yes","1024"
"undefined","undefined","undefined","undefined","black","no","legacy","0","uniform","undefined","undefined","undefined","81","81","163","81","81","NA","81","81","0","0","0","81","81","0","81","0","NA","81","0","Thu 06 Jun 2019 12:13:31 PM PDT","500","1000","The main experiment item","yes","NA","ABX_v3.osexp","/home/ubuntu/Desktop/panara","yes","no","mono","no","18","no","white","no","yes","768","27","53","/home/ubuntu/Desktop/panara/subject-705.csv","Jazzy James","3.1.3","3.1.4.wav","1.1.4.wav","1.1.2.wav","0","0","space","0","NA","564","3642","564","NA","181275","]","2","1024","2","48000","-16","experiment","1.1.2.wav","3.1.4.wav","1.1.4.wav","705","odd","669762","672338","671838","671057","488254","NA","668761","673119","803","NA","NA","668759","673684","516854","668759","182081","NA","668762","805","New experiment","NA","0","0","0","yes","1024"
"undefined","undefined","undefined","undefined","black","no","legacy","0","uniform","undefined","undefined","undefined","82","82","165","82","82","NA","82","82","0","0","0","82","82","0","82","0","NA","82","0","Thu 06 Jun 2019 12:13:31 PM PDT","500","1000","The main experiment item","yes","NA","ABX_v3.osexp","/home/ubuntu/Desktop/panara","no","no","mono","no","18","no","white","no","yes","768","28","53","/home/ubuntu/Desktop/panara/subject-705.csv","Jazzy James","3.1.3","4.2.3.wav","4.2.5.wav","2.2.5.wav","0","1","space","1","NA","690","3642","690","NA","181275","]","2","1024","2","48000","-16","experiment","4.2.3.wav","2.2.5.wav","4.2.5.wav","705","odd","674871","677334","676834","676112","488254","NA","673871","678089","803","NA","NA","673869","678779","516854","673869","182081","NA","673871","805","New experiment","NA","0","0","0","yes","1024"
"undefined","undefined","undefined","undefined","black","no","legacy","0","uniform","undefined","undefined","undefined","83","83","167","83","83","NA","83","83","0","0","0","83","83","0","83","0","NA","83","0","Thu 06 Jun 2019 12:13:31 PM PDT","500","1000","The main experiment item","yes","NA","ABX_v3.osexp","/home/ubuntu/Desktop/panara","no","no","mono","no","18","no","white","no","yes","768","29","53","/home/ubuntu/Desktop/panara/subject-705.csv","Jazzy James","3.1.3","4.2.3.wav","4.2.5.wav","4.1.5.wav","0","1","space","1","NA","1247","3642","1247","NA","181275","]","2","1024","2","48000","-16","experiment","4.2.3.wav","4.1.5.wav","4.2.5.wav","705","odd","679964","682426","681926","681202","488254","NA","678964","683171","803","NA","NA","678962","684419","516854","678962","182081","NA","678964","805","New experiment","NA","0","0","0","yes","1024"
"undefined","undefined","undefined","undefined","black","no","legacy","0","uniform","undefined","undefined","undefined","84","84","169","84","84","NA","84","84","0","0","0","84","84","0","84","0","NA","84","0","Thu 06 Jun 2019 12:13:31 PM PDT","500","1000","The main experiment item","yes","NA","ABX_v3.osexp","/home/ubuntu/Desktop/panara","no","no","mono","no","18","no","white","no","yes","768","30","53","/home/ubuntu/Desktop/panara/subject-705.csv","Jazzy James","3.1.3","1.2.1.wav","2.2.1.wav","2.2.3.wav","0","0","space","0","NA","955","3642","955","NA","181275","]","2","1024","2","48000","-16","experiment","1.2.1.wav","2.2.3.wav","2.2.1.wav","705","odd","685591","688107","687607","686884","488254","NA","684590","688847","803","NA","NA","684588","689803","516854","684588","182081","NA","684591","805","New experiment","NA","0","0","0","yes","1024"
"undefined","undefined","undefined","undefined","black","no","legacy","0","uniform","undefined","undefined","undefined","85","85","171","85","85","NA","85","85","0","0","0","85","85","0","85","0","NA","85","0","Thu 06 Jun 2019 12:13:31 PM PDT","500","1000","The main experiment item","yes","NA","ABX_v3.osexp","/home/ubuntu/Desktop/panara","no","no","mono","no","18","no","white","no","yes","768","31","53","/home/ubuntu/Desktop/panara/subject-705.csv","Jazzy James","3.1.3","2.1.2.wav","4.1.2.wav","4.1.4.wav","0","0","space","0","NA","524","3642","524","NA","181275","]","2","1024","2","48000","-16","experiment","2.1.2.wav","4.1.4.wav","4.1.2.wav","705","odd","690974","693441","692941","692219","488254","NA","689974","694158","803","NA","NA","689971","694683","516854","689971","182081","NA","689974","805","New experiment","NA","0","0","0","yes","1024"
"undefined","undefined","undefined","undefined","black","no","legacy","0","uniform","undefined","undefined","undefined","86","86","173","86","86","NA","86","86","0","0","0","86","86","0","86","0","NA","86","0","Thu 06 Jun 2019 12:13:31 PM PDT","500","1000","The main experiment item","yes","NA","ABX_v3.osexp","/home/ubuntu/Desktop/panara","yes","no","mono","no","18","no","white","no","yes","768","32","53","/home/ubuntu/Desktop/panara/subject-705.csv","Jazzy James","3.1.3","3.2.5.wav","3.2.3.wav","4.2.3.wav","0","1","space","1","NA","1546","3642","1546","NA","181275","]","2","1024","2","48000","-16","experiment","4.2.3.wav","3.2.5.wav","3.2.3.wav","705","odd","695846","698376","697876","697131","488254","NA","694846","699136","803","NA","NA","694844","700683","516854","694844","182081","NA","694846","805","New experiment","NA","0","0","0","yes","1024"
"undefined","undefined","undefined","undefined","black","no","legacy","0","uniform","undefined","undefined","undefined","87","87","175","87","87","NA","87","87","0","0","0","87","87","0","87","0","NA","87","0","Thu 06 Jun 2019 12:13:31 PM PDT","500","1000","The main experiment item","yes","NA","ABX_v3.osexp","/home/ubuntu/Desktop/panara","no","no","mono","no","18","no","white","no","yes","768","33","53","/home/ubuntu/Desktop/panara/subject-705.csv","Jazzy James","3.1.3","3.1.3.wav","4.1.3.wav","4.1.5.wav","0","0","space","0","NA","1953","3642","1953","NA","181275","]","2","1024","2","48000","-16","experiment","3.1.3.wav","4.1.5.wav","4.1.3.wav","705","odd","701861","704358","703858","703104","488254","NA","700861","705080","803","NA","NA","700858","707033","516854","700858","182081","NA","700861","805","New experiment","NA","0","0","0","yes","1024"
"undefined","undefined","undefined","undefined","black","no","legacy","0","uniform","undefined","undefined","undefined","88","88","177","88","88","NA","88","88","0","0","0","88","88","0","88","0","NA","88","0","Thu 06 Jun 2019 12:13:31 PM PDT","500","1000","The main experiment item","yes","NA","ABX_v3.osexp","/home/ubuntu/Desktop/panara","yes","no","mono","no","18","no","white","no","yes","768","34","53","/home/ubuntu/Desktop/panara/subject-705.csv","Jazzy James","3.1.3","1.1.4.wav","3.1.4.wav","3.1.2.wav","0","0","space","0","NA","571","3642","571","NA","181275","]","2","1024","2","48000","-16","experiment","3.1.2.wav","1.1.4.wav","3.1.4.wav","705","odd","708171","710727","710227","709447","488254","NA","707170","711502","803","NA","NA","707168","712073","516854","707167","182081","NA","707171","805","New experiment","NA","0","0","0","yes","1024"
"undefined","undefined","undefined","undefined","black","no","legacy","0","uniform","undefined","undefined","undefined","89","89","179","89","89","NA","89","89","0","0","0","89","89","0","89","0","NA","89","0","Thu 06 Jun 2019 12:13:31 PM PDT","500","1000","The main experiment item","yes","NA","ABX_v3.osexp","/home/ubuntu/Desktop/panara","no","no","mono","no","18","no","white","no","yes","768","35","53","/home/ubuntu/Desktop/panara/subject-705.csv","Jazzy James","3.1.3","4.2.1.wav","3.2.1.wav","3.2.3.wav","0","0","space","0","NA","883","3642","883","NA","181275","]","2","1024","2","48000","-16","experiment","4.2.1.wav","3.2.3.wav","3.2.1.wav","705","odd","713226","715740","715240","714489","488254","NA","712226","716494","803","NA","NA","712224","717378","516854","712223","182081","NA","712226","805","New experiment","NA","0","0","0","yes","1024"
"undefined","undefined","undefined","undefined","black","no","legacy","0","uniform","undefined","undefined","undefined","90","90","181","90","90","NA","90","90","0","0","0","90","90","0","90","0","NA","90","0","Thu 06 Jun 2019 12:13:31 PM PDT","500","1000","The main experiment item","yes","NA","ABX_v3.osexp","/home/ubuntu/Desktop/panara","yes","no","mono","no","18","no","white","no","yes","768","36","53","/home/ubuntu/Desktop/panara/subject-705.csv","Jazzy James","3.1.3","3.2.5.wav","3.2.3.wav","1.2.3.wav","0","1","space","1","NA","803","3642","803","NA","181275","]","2","1024","2","48000","-16","experiment","1.2.3.wav","3.2.5.wav","3.2.3.wav","705","odd","718544","721087","720587","719837","488254","NA","717544","721870","803","NA","NA","717541","722674","516854","717541","182081","NA","717544","805","New experiment","NA","0","0","0","yes","1024"
"undefined","undefined","undefined","undefined","black","no","legacy","0","uniform","undefined","undefined","undefined","91","91","183","91","91","NA","91","91","0","0","0","91","91","0","91","0","NA","91","0","Thu 06 Jun 2019 12:13:31 PM PDT","500","1000","The main experiment item","yes","NA","ABX_v3.osexp","/home/ubuntu/Desktop/panara","no","no","mono","no","18","no","white","no","yes","768","37","53","/home/ubuntu/Desktop/panara/subject-705.csv","Jazzy James","3.1.3","1.1.3.wav","1.2.3.wav","1.2.5.wav","0","1","space","1","NA","780","3642","780","NA","181275","]","2","1024","2","48000","-16","experiment","1.1.3.wav","1.2.5.wav","1.2.3.wav","705","odd","723828","726399","725899","725127","488254","NA","722828","727181","803","NA","NA","722825","727962","516854","722825","182081","NA","722828","805","New experiment","NA","0","0","0","yes","1024"
"undefined","undefined","undefined","undefined","black","no","legacy","0","uniform","undefined","undefined","undefined","92","92","185","92","92","NA","92","92","0","0","0","92","92","0","92","0","NA","92","0","Thu 06 Jun 2019 12:13:31 PM PDT","500","1000","The main experiment item","yes","NA","ABX_v3.osexp","/home/ubuntu/Desktop/panara","no","no","mono","no","18","no","white","no","yes","768","38","53","/home/ubuntu/Desktop/panara/subject-705.csv","Jazzy James","3.1.3","2.1.2.wav","2.2.2.wav","2.2.4.wav","0","0","space","0","NA","1939","3642","1939","NA","181275","]","2","1024","2","48000","-16","experiment","2.1.2.wav","2.2.4.wav","2.2.2.wav","705","odd","729116","731717","731217","730375","488254","NA","728116","732470","803","NA","NA","728114","734410","516854","728114","182081","NA","728116","805","New experiment","NA","0","0","0","yes","1024"
"undefined","undefined","undefined","undefined","black","no","legacy","0","uniform","undefined","undefined","undefined","93","93","187","93","93","NA","93","93","0","0","0","93","93","0","93","0","NA","93","0","Thu 06 Jun 2019 12:13:31 PM PDT","500","1000","The main experiment item","yes","NA","ABX_v3.osexp","/home/ubuntu/Desktop/panara","yes","no","mono","no","18","no","white","no","yes","768","39","53","/home/ubuntu/Desktop/panara/subject-705.csv","Jazzy James","3.1.3","3.1.4.wav","3.1.2.wav","3.2.2.wav","0","1","space","1","NA","1489","3642","1489","NA","181275","]","2","1024","2","48000","-16","experiment","3.2.2.wav","3.1.4.wav","3.1.2.wav","705","odd","735563","738122","737622","736837","488254","NA","734563","738896","803","NA","NA","734560","740385","516854","734560","182081","NA","734563","805","New experiment","NA","0","0","0","yes","1024"
"undefined","undefined","undefined","undefined","black","no","legacy","0","uniform","undefined","undefined","undefined","94","94","189","94","94","NA","94","94","0","0","0","94","94","0","94","0","NA","94","0","Thu 06 Jun 2019 12:13:31 PM PDT","500","1000","The main experiment item","yes","NA","ABX_v3.osexp","/home/ubuntu/Desktop/panara","yes","no","mono","no","18","no","white","no","yes","768","40","53","/home/ubuntu/Desktop/panara/subject-705.csv","Jazzy James","3.1.3","4.1.5.wav","4.1.3.wav","4.2.3.wav","0","1","space","1","NA","1117","3642","1117","NA","181275","]","2","1024","2","48000","-16","experiment","4.2.3.wav","4.1.5.wav","4.1.3.wav","705","odd","741545","744002","743502","742791","488254","NA","740545","744740","803","NA","NA","740542","745858","516854","740542","182081","NA","740545","805","New experiment","NA","0","0","0","yes","1024"
"undefined","undefined","undefined","undefined","black","no","legacy","0","uniform","undefined","undefined","undefined","95","95","191","95","95","NA","95","95","0","0","0","95","95","0","95","0","NA","95","0","Thu 06 Jun 2019 12:13:31 PM PDT","500","1000","The main experiment item","yes","NA","ABX_v3.osexp","/home/ubuntu/Desktop/panara","yes","no","mono","no","18","no","white","no","yes","768","41","53","/home/ubuntu/Desktop/panara/subject-705.csv","Jazzy James","3.1.3","1.1.3.wav","1.1.1.wav","2.1.1.wav","0","0","space","0","NA","1978","3642","1978","NA","181275","]","2","1024","2","48000","-16","experiment","2.1.1.wav","1.1.3.wav","1.1.1.wav","705","odd","747062","749633","749133","748354","488254","NA","746062","750382","803","NA","NA","746059","752361","516854","746059","182081","NA","746062","805","New experiment","NA","0","0","0","yes","1024"
"undefined","undefined","undefined","undefined","black","no","legacy","0","uniform","undefined","undefined","undefined","96","96","193","96","96","NA","96","96","0","0","0","96","96","0","96","0","NA","96","0","Thu 06 Jun 2019 12:13:31 PM PDT","500","1000","The main experiment item","yes","NA","ABX_v3.osexp","/home/ubuntu/Desktop/panara","no","no","mono","no","18","no","white","no","yes","768","42","53","/home/ubuntu/Desktop/panara/subject-705.csv","Jazzy James","3.1.3","2.1.1.wav","2.1.3.wav","4.1.3.wav","0","1","space","1","NA","560","3642","560","NA","181275","]","2","1024","2","48000","-16","experiment","2.1.1.wav","4.1.3.wav","2.1.3.wav","705","odd","753535","756029","755529","754779","488254","NA","752535","756752","803","NA","NA","752533","757313","516854","752533","182081","NA","752535","805","New experiment","NA","0","0","0","yes","1024"
"undefined","undefined","undefined","undefined","black","no","legacy","0","uniform","undefined","undefined","undefined","97","97","195","97","97","NA","97","97","0","0","0","97","97","0","97","0","NA","97","0","Thu 06 Jun 2019 12:13:31 PM PDT","500","1000","The main experiment item","yes","NA","ABX_v3.osexp","/home/ubuntu/Desktop/panara","yes","no","mono","no","18","no","white","no","yes","768","43","53","/home/ubuntu/Desktop/panara/subject-705.csv","Jazzy James","3.1.3","4.2.4.wav","2.2.4.wav","2.2.2.wav","0","0","space","0","NA","336","3642","336","NA","181275","]","2","1024","2","48000","-16","experiment","2.2.2.wav","4.2.4.wav","2.2.4.wav","705","odd","758438","760897","760397","759685","488254","NA","757438","761616","803","NA","NA","757435","761953","516854","757435","182081","NA","757438","805","New experiment","NA","0","0","0","yes","1024"
"undefined","undefined","undefined","undefined","black","no","legacy","0","uniform","undefined","undefined","undefined","98","98","197","98","98","NA","98","98","0","0","0","98","98","0","98","0","NA","98","0","Thu 06 Jun 2019 12:13:31 PM PDT","500","1000","The main experiment item","yes","NA","ABX_v3.osexp","/home/ubuntu/Desktop/panara","no","no","mono","no","18","no","white","no","yes","768","44","53","/home/ubuntu/Desktop/panara/subject-705.csv","Jazzy James","3.1.3","2.1.2.wav","2.1.4.wav","2.2.4.wav","0","0","space","0","NA","1231","3642","1231","NA","181275","]","2","1024","2","48000","-16","experiment","2.1.2.wav","2.2.4.wav","2.1.4.wav","705","odd","763098","765614","765114","764370","488254","NA","762097","766369","803","NA","NA","762095","767601","516854","762095","182081","NA","762098","805","New experiment","NA","0","0","0","yes","1024"
"undefined","undefined","undefined","undefined","black","no","legacy","0","uniform","undefined","undefined","undefined","99","99","199","99","99","NA","99","99","0","0","0","99","99","0","99","0","NA","99","0","Thu 06 Jun 2019 12:13:31 PM PDT","500","1000","The main experiment item","yes","NA","ABX_v3.osexp","/home/ubuntu/Desktop/panara","yes","no","mono","no","18","no","white","no","yes","768","45","53","/home/ubuntu/Desktop/panara/subject-705.csv","Jazzy James","3.1.3","2.2.4.wav","2.2.2.wav","1.2.2.wav","0","1","space","1","NA","1308","3642","1308","NA","181275","]","2","1024","2","48000","-16","experiment","1.2.2.wav","2.2.4.wav","2.2.2.wav","705","odd","768767","771248","770748","770006","488254","NA","767766","772020","803","NA","NA","767764","773328","516854","767764","182081","NA","767767","805","New experiment","NA","0","0","0","yes","1024"
"undefined","undefined","undefined","undefined","black","no","legacy","0","uniform","undefined","undefined","undefined","100","100","201","100","100","NA","100","100","0","0","0","100","100","0","100","0","NA","100","0","Thu 06 Jun 2019 12:13:31 PM PDT","500","1000","The main experiment item","yes","NA","ABX_v3.osexp","/home/ubuntu/Desktop/panara","no","no","mono","no","18","no","white","no","yes","768","46","53","/home/ubuntu/Desktop/panara/subject-705.csv","Jazzy James","3.1.3","1.2.3.wav","1.2.5.wav","2.2.5.wav","0","1","return","1","NA","1066","11653","1066","NA","181275","]","2","1024","2","48000","-16","experiment","1.2.3.wav","2.2.5.wav","1.2.5.wav","705","odd","786170","788710","788210","787439","773513","NA","785170","789429","803","NA","NA","773511","790496","516854","773511","182081","NA","785170","805","New experiment","NA","0","0","0","yes","1024"
"undefined","undefined","undefined","undefined","black","no","legacy","0","uniform","undefined","undefined","undefined","101","101","203","101","101","NA","101","101","0","0","0","101","101","0","101","0","NA","101","0","Thu 06 Jun 2019 12:13:31 PM PDT","500","1000","The main experiment item","yes","NA","ABX_v3.osexp","/home/ubuntu/Desktop/panara","yes","no","mono","no","18","no","white","no","yes","768","47","53","/home/ubuntu/Desktop/panara/subject-705.csv","Jazzy James","3.1.3","1.2.5.wav","1.1.5.wav","1.1.3.wav","0","1","return","1","NA","1137","11653","1137","NA","181275","]","2","1024","2","48000","-16","experiment","1.1.3.wav","1.2.5.wav","1.1.5.wav","705","odd","791680","794244","793744","792959","773513","NA","790680","795069","803","NA","NA","790677","796207","516854","790677","182081","NA","790680","805","New experiment","NA","0","0","0","yes","1024"
"undefined","undefined","undefined","undefined","black","no","legacy","0","uniform","undefined","undefined","undefined","102","102","205","102","102","NA","102","102","0","0","0","102","102","0","102","0","NA","102","0","Thu 06 Jun 2019 12:13:31 PM PDT","500","1000","The main experiment item","yes","NA","ABX_v3.osexp","/home/ubuntu/Desktop/panara","yes","no","mono","no","18","no","white","no","yes","768","48","53","/home/ubuntu/Desktop/panara/subject-705.csv","Jazzy James","3.1.3","2.2.5.wav","2.2.3.wav","4.2.3.wav","0","1","return","1","NA","608","11653","608","NA","181275","]","2","1024","2","48000","-16","experiment","4.2.3.wav","2.2.5.wav","2.2.3.wav","705","odd","797358","799787","799286","798574","773513","NA","796357","800526","803","NA","NA","796355","801135","516854","796355","182081","NA","796358","805","New experiment","NA","0","0","0","yes","1024"
"undefined","undefined","undefined","undefined","black","no","legacy","0","uniform","undefined","undefined","undefined","103","103","207","103","103","NA","103","103","0","0","0","103","103","0","103","0","NA","103","0","Thu 06 Jun 2019 12:13:31 PM PDT","500","1000","The main experiment item","yes","NA","ABX_v3.osexp","/home/ubuntu/Desktop/panara","yes","no","mono","no","18","no","white","no","yes","768","49","53","/home/ubuntu/Desktop/panara/subject-705.csv","Jazzy James","3.1.3","1.1.3.wav","2.1.3.wav","2.1.1.wav","0","0","return","0","NA","1894","11653","1894","NA","181275","]","2","1024","2","48000","-16","experiment","2.1.1.wav","1.1.3.wav","2.1.3.wav","705","odd","802298","804872","804372","803630","773513","NA","801297","805625","803","NA","NA","801295","807519","516854","801295","182081","NA","801298","805","New experiment","NA","0","0","0","yes","1024"
"undefined","undefined","undefined","undefined","black","no","legacy","0","uniform","undefined","undefined","undefined","104","104","209","104","104","NA","104","104","0","0","0","104","104","0","104","0","NA","104","0","Thu 06 Jun 2019 12:13:31 PM PDT","500","1000","The main experiment item","yes","NA","ABX_v3.osexp","/home/ubuntu/Desktop/panara","yes","no","mono","no","18","no","white","no","yes","768","50","53","/home/ubuntu/Desktop/panara/subject-705.csv","Jazzy James","3.1.3","4.2.5.wav","4.2.3.wav","2.2.3.wav","0","1","return","1","NA","978","11653","978","NA","181275","]","2","1024","2","48000","-16","experiment","2.2.3.wav","4.2.5.wav","4.2.3.wav","705","odd","808656","811144","810644","809894","773513","NA","807656","811901","803","NA","NA","807653","812879","516854","807653","182081","NA","807656","805","New experiment","NA","0","0","0","yes","1024"
"undefined","undefined","undefined","undefined","black","no","legacy","0","uniform","undefined","undefined","undefined","105","105","211","105","105","NA","105","105","0","0","0","105","105","0","105","0","NA","105","0","Thu 06 Jun 2019 12:13:31 PM PDT","500","1000","The main experiment item","yes","NA","ABX_v3.osexp","/home/ubuntu/Desktop/panara","yes","no","mono","no","18","no","white","no","yes","768","51","53","/home/ubuntu/Desktop/panara/subject-705.csv","Jazzy James","3.1.3","4.2.4.wav","4.2.2.wav","2.2.2.wav","0","1","return","1","NA","571","11653","571","NA","181275","]","2","1024","2","48000","-16","experiment","2.2.2.wav","4.2.4.wav","4.2.2.wav","705","odd","814043","816491","815991","815278","773513","NA","813042","817203","803","NA","NA","813039","817775","516854","813039","182081","NA","813043","805","New experiment","NA","0","0","0","yes","1024"
"undefined","undefined","undefined","undefined","black","no","legacy","0","uniform","undefined","undefined","undefined","106","106","213","106","106","NA","106","106","0","0","0","106","106","0","106","0","NA","106","0","Thu 06 Jun 2019 12:13:31 PM PDT","500","1000","The main experiment item","yes","NA","ABX_v3.osexp","/home/ubuntu/Desktop/panara","no","no","mono","no","18","no","white","no","yes","768","52","53","/home/ubuntu/Desktop/panara/subject-705.csv","Jazzy James","3.1.3","2.1.3.wav","2.1.5.wav","1.1.5.wav","0","1","return","1","NA","1925","11653","1925","NA","181275","]","2","1024","2","48000","-16","experiment","2.1.3.wav","1.1.5.wav","2.1.5.wav","705","odd","818960","821438","820938","820207","773513","NA","817960","822224","803","NA","NA","817958","824150","516854","817958","182081","NA","817960","805","New experiment","NA","0","0","0","yes","1024"
"undefined","undefined","undefined","undefined","black","no","legacy","0","uniform","undefined","undefined","undefined","107","107","215","107","107","NA","107","107","0","0","0","107","107","0","107","0","NA","107","0","Thu 06 Jun 2019 12:13:31 PM PDT","500","1000","The main experiment item","yes","NA","ABX_v3.osexp","/home/ubuntu/Desktop/panara","no","no","mono","no","18","no","white","no","yes","768","53","53","/home/ubuntu/Desktop/panara/subject-705.csv","Jazzy James","3.1.3","4.2.1.wav","4.2.3.wav","4.1.3.wav","0","0","return","0","NA","1334","11653","1334","NA","181275","]","2","1024","2","48000","-16","experiment","4.2.1.wav","4.1.3.wav","4.2.3.wav","705","odd","825328","827783","827283","826537","773513","NA","824328","828536","803","NA","NA","824325","829870","516854","824325","182081","NA","824328","805","New experiment","NA","0","0","0","yes","1024"
"undefined","undefined","undefined","undefined","black","no","legacy","0","uniform","undefined","undefined","undefined","108","108","217","108","108","NA","108","108","0","0","0","108","108","0","108","0","NA","108","0","Thu 06 Jun 2019 12:13:31 PM PDT","500","1000","The main experiment item","yes","NA","ABX_v3.osexp","/home/ubuntu/Desktop/panara","no","no","mono","no","18","no","white","no","yes","768","54","53","/home/ubuntu/Desktop/panara/subject-705.csv","Jazzy James","3.1.3","4.2.1.wav","4.2.3.wav","2.2.3.wav","0","1","return","1","NA","724","11653","724","NA","181275","]","2","1024","2","48000","-16","experiment","4.2.1.wav","2.2.3.wav","4.2.3.wav","705","odd","831034","833542","833042","832297","773513","NA","830033","834296","803","NA","NA","830031","835021","516854","830031","182081","NA","830034","805","New experiment","NA","0","0","0","yes","1024"
"undefined","undefined","undefined","undefined","black","no","legacy","0","uniform","undefined","undefined","undefined","109","109","219","109","109","NA","109","109","0","0","0","109","109","0","109","0","NA","109","0","Thu 06 Jun 2019 12:13:31 PM PDT","500","1000","The main experiment item","yes","NA","ABX_v3.osexp","/home/ubuntu/Desktop/panara","yes","no","mono","no","18","no","white","no","yes","768","55","53","/home/ubuntu/Desktop/panara/subject-705.csv","Jazzy James","3.1.3","4.1.4.wav","4.1.2.wav","3.1.2.wav","0","1","return","1","NA","689","11653","689","NA","181275","]","2","1024","2","48000","-16","experiment","3.1.2.wav","4.1.4.wav","4.1.2.wav","705","odd","836204","838627","838127","837412","773513","NA","835203","839418","803","NA","NA","835201","840108","516854","835201","182081","NA","835204","805","New experiment","NA","0","0","0","yes","1024"
"undefined","undefined","undefined","undefined","black","no","legacy","0","uniform","undefined","undefined","undefined","110","110","221","110","110","NA","110","110","0","0","0","110","110","0","110","0","NA","110","0","Thu 06 Jun 2019 12:13:31 PM PDT","500","1000","The main experiment item","yes","NA","ABX_v3.osexp","/home/ubuntu/Desktop/panara","yes","no","mono","no","18","no","white","no","yes","768","56","53","/home/ubuntu/Desktop/panara/subject-705.csv","Jazzy James","3.1.3","1.1.3.wav","1.1.1.wav","3.1.1.wav","0","1","return","1","NA","601","11653","601","NA","181275","]","2","1024","2","48000","-16","experiment","3.1.1.wav","1.1.3.wav","1.1.1.wav","705","odd","841278","843884","843384","842599","773513","NA","840278","844617","803","NA","NA","840275","845219","516854","840275","182081","NA","840278","805","New experiment","NA","0","0","0","yes","1024"
"undefined","undefined","undefined","undefined","black","no","legacy","0","uniform","undefined","undefined","undefined","111","111","223","111","111","NA","111","111","0","0","0","111","111","0","111","0","NA","111","0","Thu 06 Jun 2019 12:13:31 PM PDT","500","1000","The main experiment item","yes","NA","ABX_v3.osexp","/home/ubuntu/Desktop/panara","yes","no","mono","no","18","no","white","no","yes","768","57","53","/home/ubuntu/Desktop/panara/subject-705.csv","Jazzy James","3.1.3","4.2.5.wav","3.2.5.wav","3.2.3.wav","0","0","return","0","NA","1499","11653","1499","NA","181275","]","2","1024","2","48000","-16","experiment","3.2.3.wav","4.2.5.wav","3.2.5.wav","705","odd","846401","848940","848440","847655","773513","NA","845401","849678","803","NA","NA","845399","851178","516854","845398","182081","NA","845401","805","New experiment","NA","0","0","0","yes","1024"
"undefined","undefined","undefined","undefined","black","no","legacy","0","uniform","undefined","undefined","undefined","112","112","225","112","112","NA","112","112","0","0","0","112","112","0","112","0","NA","112","0","Thu 06 Jun 2019 12:13:31 PM PDT","500","1000","The main experiment item","yes","NA","ABX_v3.osexp","/home/ubuntu/Desktop/panara","no","no","mono","no","18","no","white","no","yes","768","58","53","/home/ubuntu/Desktop/panara/subject-705.csv","Jazzy James","3.1.3","3.2.1.wav","1.2.1.wav","1.2.3.wav","0","0","return","0","NA","472","11653","472","NA","181275","]","2","1024","2","48000","-16","experiment","3.2.1.wav","1.2.3.wav","1.2.1.wav","705","odd","852341","854886","854386","853601","773513","NA","851341","855673","803","NA","NA","851338","856146","516854","851338","182081","NA","851341","805","New experiment","NA","0","0","0","yes","1024"
"undefined","undefined","undefined","undefined","black","no","legacy","0","uniform","undefined","undefined","undefined","113","113","227","113","113","NA","113","113","0","0","0","113","113","0","113","0","NA","113","0","Thu 06 Jun 2019 12:13:31 PM PDT","500","1000","The main experiment item","yes","NA","ABX_v3.osexp","/home/ubuntu/Desktop/panara","yes","no","mono","no","18","no","white","no","yes","768","59","53","/home/ubuntu/Desktop/panara/subject-705.csv","Jazzy James","3.1.3","1.1.4.wav","1.1.2.wav","3.1.2.wav","0","1","return","1","NA","2305","11653","2305","NA","181275","]","2","1024","2","48000","-16","experiment","3.1.2.wav","1.1.4.wav","1.1.2.wav","705","odd","857311","859877","859377","858592","773513","NA","856311","860664","803","NA","NA","856309","862970","516854","856309","182081","NA","856311","805","New experiment","NA","0","0","0","yes","1024"
