"acc","accuracy","average_response_time","avg_rt","background","bidi","canvas_backend","compensation","coordinates","correct","correct_display_selecting","correct_welcome","count_A","count_B","count_ISI","count_X","count_break","count_determine_break","count_display_listening","count_display_selecting","count_experiment","count_finished","count_getting_started","count_new_inline_script","count_new_logger","count_new_loop","count_new_sequence","count_plain_block","count_setup_breaks","count_wait_nextitem","count_welcome","datetime","delay_ISI","delay_wait_nextitem","description","disable_garbage_collection","empty_column","experiment_file","experiment_path","flip_order","font_bold","font_family","font_italic","font_size","font_underline","foreground","form_clicks","fullscreen","height","live_row","live_row_plain_block","logfile","opensesame_codename","opensesame_version","play1","play2","play3","repeat_cycle","response","response_break","response_display_selecting","response_finished","response_time","response_time_break","response_time_display_selecting","response_time_finished","response_time_welcome","response_welcome","round_decimals","sound_buf_size","sound_channels","sound_freq","sound_sample_size","start","stimA","stimB","stimX","subject_nr","subject_parity","time_A","time_B","time_ISI","time_X","time_break","time_determine_break","time_display_listening","time_display_selecting","time_experiment","time_finished","time_getting_started","time_new_inline_script","time_new_logger","time_new_loop","time_new_sequence","time_plain_block","time_setup_breaks","time_wait_nextitem","time_welcome","title","to_break","total_correct","total_response_time","total_responses","uniform_coordinates","width"
"undefined","undefined","undefined","undefined","black","no","legacy","0","uniform","undefined","undefined","undefined","0","0","1","0","0","NA","0","0","0","0","0","0","0","0","0","0","NA","0","0","Tue 02 Jul 2019 12:15:27 PM PDT","500","1000","The main experiment item","yes","NA","ABX_v3.osexp","/home/ubuntu/Desktop/panara","no","no","mono","no","18","no","white","no","yes","768","0","0","/home/ubuntu/Desktop/panara/subject-110.csv","Jazzy James","3.1.3","1.1.3.wav","1.1.3.wav","1.1.5.wav","0","1","NA","1","NA","5696","NA","5696","NA","3618705","space","2","1024","2","48000","-16","experiment","1.1.3.wav","1.1.5.wav","1.1.3.wav","110","even","3620563","3623170","3622670","3621886","NA","NA","3619563","3623949","754","NA","NA","3619561","3629645","NA","3619561","3619462","NA","3619563","756","New experiment","NA","0","0","0","yes","1024"
"undefined","undefined","undefined","undefined","black","no","legacy","0","uniform","undefined","undefined","undefined","1","1","3","1","1","NA","1","1","0","0","0","1","1","0","1","0","NA","1","0","Tue 02 Jul 2019 12:15:27 PM PDT","500","1000","The main experiment item","yes","NA","ABX_v3.osexp","/home/ubuntu/Desktop/panara","no","no","mono","no","18","no","white","no","yes","768","1","1","/home/ubuntu/Desktop/panara/subject-110.csv","Jazzy James","3.1.3","2.1.1.wav","2.1.3.wav","2.1.3.wav","0","0","NA","0","NA","2081","NA","2081","NA","3618705","space","2","1024","2","48000","-16","experiment","2.1.1.wav","2.1.3.wav","2.1.3.wav","110","even","3630898","3633432","3632932","3632177","NA","NA","3629898","3634211","754","NA","NA","3629896","3636292","NA","3629896","3619462","NA","3629898","756","New experiment","NA","0","0","0","yes","1024"
"undefined","undefined","undefined","undefined","black","no","legacy","0","uniform","undefined","undefined","undefined","2","2","5","2","2","NA","2","2","0","0","0","2","2","0","2","0","NA","2","0","Tue 02 Jul 2019 12:15:27 PM PDT","500","1000","The main experiment item","yes","NA","ABX_v3.osexp","/home/ubuntu/Desktop/panara","no","no","mono","no","18","no","white","no","yes","768","2","2","/home/ubuntu/Desktop/panara/subject-110.csv","Jazzy James","3.1.3","4.1.3.wav","4.1.5.wav","4.1.5.wav","0","0","NA","0","NA","1927","NA","1927","NA","3618705","space","2","1024","2","48000","-16","experiment","4.1.3.wav","4.1.5.wav","4.1.5.wav","110","even","3637448","3639916","3639416","3638682","NA","NA","3636447","3640629","754","NA","NA","3636444","3642556","NA","3636444","3619462","NA","3636447","756","New experiment","NA","0","0","0","yes","1024"
"undefined","undefined","undefined","undefined","black","no","legacy","0","uniform","undefined","undefined","undefined","3","3","7","3","3","NA","3","3","0","0","0","3","3","0","3","0","NA","3","0","Tue 02 Jul 2019 12:15:27 PM PDT","500","1000","The main experiment item","yes","NA","ABX_v3.osexp","/home/ubuntu/Desktop/panara","no","no","mono","no","18","no","white","no","yes","768","3","3","/home/ubuntu/Desktop/panara/subject-110.csv","Jazzy James","3.1.3","4.2.3.wav","4.2.3.wav","4.2.5.wav","0","1","NA","1","NA","1903","NA","1903","NA","3618705","space","2","1024","2","48000","-16","experiment","4.2.3.wav","4.2.5.wav","4.2.3.wav","110","even","3643735","3646272","3645771","3645019","NA","NA","3642735","3647028","754","NA","NA","3642733","3648932","NA","3642733","3619462","NA","3642735","756","New experiment","NA","0","0","0","yes","1024"
"undefined","undefined","undefined","undefined","black","no","legacy","0","uniform","undefined","undefined","undefined","4","4","9","4","4","NA","4","4","0","0","0","4","4","0","4","0","NA","4","0","Tue 02 Jul 2019 12:15:27 PM PDT","500","1000","The main experiment item","yes","NA","ABX_v3.osexp","/home/ubuntu/Desktop/panara","no","no","mono","no","18","no","white","no","yes","768","4","4","/home/ubuntu/Desktop/panara/subject-110.csv","Jazzy James","3.1.3","2.1.3.wav","2.1.3.wav","2.1.5.wav","0","1","NA","1","NA","1804","NA","1804","NA","3618705","space","2","1024","2","48000","-16","experiment","2.1.3.wav","2.1.5.wav","2.1.3.wav","110","even","3650101","3652591","3652091","3651337","NA","NA","3649101","3653326","754","NA","NA","3649098","3655130","NA","3649098","3619462","NA","3649101","756","New experiment","NA","0","0","0","yes","1024"
"undefined","undefined","undefined","undefined","black","no","legacy","0","uniform","undefined","undefined","undefined","5","5","11","5","5","NA","5","5","0","0","0","5","5","0","5","0","NA","5","0","Tue 02 Jul 2019 12:15:27 PM PDT","500","1000","The main experiment item","yes","NA","ABX_v3.osexp","/home/ubuntu/Desktop/panara","no","no","mono","no","18","no","white","no","yes","768","5","5","/home/ubuntu/Desktop/panara/subject-110.csv","Jazzy James","3.1.3","4.2.2.wav","4.2.4.wav","4.2.4.wav","0","0","NA","0","NA","2655","NA","2655","NA","3618705","space","2","1024","2","48000","-16","experiment","4.2.2.wav","4.2.4.wav","4.2.4.wav","110","even","3656288","3658731","3658231","3657514","NA","NA","3655287","3659474","754","NA","NA","3655285","3662130","NA","3655285","3619462","NA","3655288","756","New experiment","NA","0","0","0","yes","1024"
"undefined","undefined","undefined","undefined","black","no","legacy","0","uniform","undefined","undefined","undefined","6","6","13","6","6","NA","6","6","0","0","0","6","6","0","6","0","NA","6","0","Tue 02 Jul 2019 12:15:27 PM PDT","500","1000","The main experiment item","yes","NA","ABX_v3.osexp","/home/ubuntu/Desktop/panara","yes","no","mono","no","18","no","white","no","yes","768","6","6","/home/ubuntu/Desktop/panara/subject-110.csv","Jazzy James","3.1.3","1.1.5.wav","1.1.5.wav","1.1.3.wav","0","1","NA","1","NA","1589","NA","1589","NA","3618705","space","2","1024","2","48000","-16","experiment","1.1.3.wav","1.1.5.wav","1.1.5.wav","110","even","3663283","3665816","3665316","3664536","NA","NA","3662283","3666621","754","NA","NA","3662280","3668210","NA","3662280","3619462","NA","3662283","756","New experiment","NA","0","0","0","yes","1024"
"undefined","undefined","undefined","undefined","black","no","legacy","0","uniform","undefined","undefined","undefined","7","7","15","7","7","NA","7","7","0","0","0","7","7","0","7","0","NA","7","0","Tue 02 Jul 2019 12:15:27 PM PDT","500","1000","The main experiment item","yes","NA","ABX_v3.osexp","/home/ubuntu/Desktop/panara","yes","no","mono","no","18","no","white","no","yes","768","7","7","/home/ubuntu/Desktop/panara/subject-110.csv","Jazzy James","3.1.3","5.2.5.wav","5.2.3.wav","5.2.3.wav","0","0","NA","0","NA","796","NA","796","NA","3618705","space","2","1024","2","48000","-16","experiment","5.2.3.wav","5.2.5.wav","5.2.3.wav","110","even","3669373","3671876","3671376","3670628","NA","NA","3668372","3672590","754","NA","NA","3668370","3673386","NA","3668370","3619462","NA","3668373","756","New experiment","NA","0","0","0","yes","1024"
"undefined","undefined","undefined","undefined","black","no","legacy","0","uniform","undefined","undefined","undefined","8","8","17","8","8","NA","8","8","0","0","0","8","8","0","8","0","NA","8","0","Tue 02 Jul 2019 12:15:27 PM PDT","500","1000","The main experiment item","yes","NA","ABX_v3.osexp","/home/ubuntu/Desktop/panara","no","no","mono","no","18","no","white","no","yes","768","8","8","/home/ubuntu/Desktop/panara/subject-110.csv","Jazzy James","3.1.3","3.1.2.wav","3.1.4.wav","3.1.4.wav","0","0","NA","0","NA","1961","NA","1961","NA","3618705","space","2","1024","2","48000","-16","experiment","3.1.2.wav","3.1.4.wav","3.1.4.wav","110","even","3674621","3677180","3676679","3675907","NA","NA","3673621","3677952","754","NA","NA","3673619","3679914","NA","3673619","3619462","NA","3673621","756","New experiment","NA","0","0","0","yes","1024"
"undefined","undefined","undefined","undefined","black","no","legacy","0","uniform","undefined","undefined","undefined","9","9","19","9","9","NA","9","9","0","0","0","9","9","0","9","0","NA","9","0","Tue 02 Jul 2019 12:15:27 PM PDT","500","1000","The main experiment item","yes","NA","ABX_v3.osexp","/home/ubuntu/Desktop/panara","yes","no","mono","no","18","no","white","no","yes","768","9","9","/home/ubuntu/Desktop/panara/subject-110.csv","Jazzy James","3.1.3","2.2.4.wav","2.2.4.wav","2.2.2.wav","0","1","NA","1","NA","1244","NA","1244","NA","3618705","space","2","1024","2","48000","-16","experiment","2.2.2.wav","2.2.4.wav","2.2.4.wav","110","even","3681125","3683585","3683085","3682366","NA","NA","3680124","3684301","754","NA","NA","3680122","3685545","NA","3680122","3619462","NA","3680125","756","New experiment","NA","0","0","0","yes","1024"
"undefined","undefined","undefined","undefined","black","no","legacy","0","uniform","undefined","undefined","undefined","10","10","21","10","10","NA","10","10","0","0","0","10","10","0","10","0","NA","10","0","Tue 02 Jul 2019 12:15:27 PM PDT","500","1000","The main experiment item","yes","NA","ABX_v3.osexp","/home/ubuntu/Desktop/panara","no","no","mono","no","18","no","white","no","yes","768","10","10","/home/ubuntu/Desktop/panara/subject-110.csv","Jazzy James","3.1.3","3.2.3.wav","3.2.3.wav","3.2.5.wav","0","1","NA","1","NA","1176","NA","1176","NA","3618705","space","2","1024","2","48000","-16","experiment","3.2.3.wav","3.2.5.wav","3.2.3.wav","110","even","3686711","3689220","3688720","3687959","NA","NA","3685711","3689975","754","NA","NA","3685708","3691152","NA","3685708","3619462","NA","3685711","756","New experiment","NA","0","0","0","yes","1024"
"undefined","undefined","undefined","undefined","black","no","legacy","0","uniform","undefined","undefined","undefined","11","11","23","11","11","NA","11","11","0","0","0","11","11","0","11","0","NA","11","0","Tue 02 Jul 2019 12:15:27 PM PDT","500","1000","The main experiment item","yes","NA","ABX_v3.osexp","/home/ubuntu/Desktop/panara","yes","no","mono","no","18","no","white","no","yes","768","11","11","/home/ubuntu/Desktop/panara/subject-110.csv","Jazzy James","3.1.3","2.2.3.wav","2.2.1.wav","2.2.1.wav","0","1","NA","1","NA","1453","NA","1453","NA","3618705","space","2","1024","2","48000","-16","experiment","2.2.1.wav","2.2.3.wav","2.2.1.wav","110","even","3692286","3694781","3694281","3693544","NA","NA","3691286","3695499","754","NA","NA","3691284","3696952","NA","3691284","3619462","NA","3691286","756","New experiment","NA","0","0","0","yes","1024"
"undefined","undefined","undefined","undefined","black","no","legacy","0","uniform","undefined","undefined","undefined","12","12","25","12","12","NA","12","12","0","0","0","12","12","0","12","0","NA","12","0","Tue 02 Jul 2019 12:15:27 PM PDT","500","1000","The main experiment item","yes","NA","ABX_v3.osexp","/home/ubuntu/Desktop/panara","no","no","mono","no","18","no","white","no","yes","768","12","12","/home/ubuntu/Desktop/panara/subject-110.csv","Jazzy James","3.1.3","4.2.1.wav","4.2.1.wav","4.2.3.wav","0","1","NA","1","NA","1771","NA","1771","NA","3618705","space","2","1024","2","48000","-16","experiment","4.2.1.wav","4.2.3.wav","4.2.1.wav","110","even","3698127","3700600","3700100","3699389","NA","NA","3697127","3701348","754","NA","NA","3697125","3703119","NA","3697124","3619462","NA","3697127","756","New experiment","NA","0","0","0","yes","1024"
"undefined","undefined","undefined","undefined","black","no","legacy","0","uniform","undefined","undefined","undefined","13","13","27","13","13","NA","13","13","0","0","0","13","13","0","13","0","NA","13","0","Tue 02 Jul 2019 12:15:27 PM PDT","500","1000","The main experiment item","yes","NA","ABX_v3.osexp","/home/ubuntu/Desktop/panara","no","no","mono","no","18","no","white","no","yes","768","13","13","/home/ubuntu/Desktop/panara/subject-110.csv","Jazzy James","3.1.3","2.1.2.wav","2.1.2.wav","2.1.4.wav","0","1","NA","1","NA","1418","NA","1418","NA","3618705","space","2","1024","2","48000","-16","experiment","2.1.2.wav","2.1.4.wav","2.1.2.wav","110","even","3704314","3706830","3706330","3705561","NA","NA","3703313","3707581","754","NA","NA","3703311","3709000","NA","3703310","3619462","NA","3703314","756","New experiment","NA","0","0","0","yes","1024"
"undefined","undefined","undefined","undefined","black","no","legacy","0","uniform","undefined","undefined","undefined","14","14","29","14","14","NA","14","14","0","0","0","14","14","0","14","0","NA","14","0","Tue 02 Jul 2019 12:15:27 PM PDT","500","1000","The main experiment item","yes","NA","ABX_v3.osexp","/home/ubuntu/Desktop/panara","no","no","mono","no","18","no","white","no","yes","768","14","14","/home/ubuntu/Desktop/panara/subject-110.csv","Jazzy James","3.1.3","1.1.1.wav","1.1.1.wav","1.1.3.wav","0","1","NA","1","NA","1496","NA","1496","NA","3618705","space","2","1024","2","48000","-16","experiment","1.1.1.wav","1.1.3.wav","1.1.1.wav","110","even","3710173","3712748","3712248","3711442","NA","NA","3709173","3713542","754","NA","NA","3709171","3715038","NA","3709171","3619462","NA","3709173","756","New experiment","NA","0","0","0","yes","1024"
"undefined","undefined","undefined","undefined","black","no","legacy","0","uniform","undefined","undefined","undefined","15","15","31","15","15","NA","15","15","0","0","0","15","15","0","15","0","NA","15","0","Tue 02 Jul 2019 12:15:27 PM PDT","500","1000","The main experiment item","yes","NA","ABX_v3.osexp","/home/ubuntu/Desktop/panara","yes","no","mono","no","18","no","white","no","yes","768","15","15","/home/ubuntu/Desktop/panara/subject-110.csv","Jazzy James","3.1.3","4.2.5.wav","4.2.5.wav","4.2.3.wav","0","1","NA","1","NA","1314","NA","1314","NA","3618705","space","2","1024","2","48000","-16","experiment","4.2.3.wav","4.2.5.wav","4.2.5.wav","110","even","3716214","3718655","3718155","3717436","NA","NA","3715214","3719396","754","NA","NA","3715211","3720711","NA","3715211","3619462","NA","3715214","756","New experiment","NA","0","0","0","yes","1024"
"undefined","undefined","undefined","undefined","black","no","legacy","0","uniform","undefined","undefined","undefined","16","16","33","16","16","NA","16","16","0","0","0","16","16","0","16","0","NA","16","0","Tue 02 Jul 2019 12:15:27 PM PDT","500","1000","The main experiment item","yes","NA","ABX_v3.osexp","/home/ubuntu/Desktop/panara","yes","no","mono","no","18","no","white","no","yes","768","16","16","/home/ubuntu/Desktop/panara/subject-110.csv","Jazzy James","3.1.3","5.2.3.wav","5.2.3.wav","5.2.1.wav","0","0","NA","0","NA","846","NA","846","NA","3618705","space","2","1024","2","48000","-16","experiment","5.2.1.wav","5.2.3.wav","5.2.3.wav","110","even","3721904","3724352","3723852","3723106","NA","NA","3720904","3725064","754","NA","NA","3720901","3725911","NA","3720901","3619462","NA","3720904","756","New experiment","NA","0","0","0","yes","1024"
"undefined","undefined","undefined","undefined","black","no","legacy","0","uniform","undefined","undefined","undefined","17","17","35","17","17","NA","17","17","0","0","0","17","17","0","17","0","NA","17","0","Tue 02 Jul 2019 12:15:27 PM PDT","500","1000","The main experiment item","yes","NA","ABX_v3.osexp","/home/ubuntu/Desktop/panara","yes","no","mono","no","18","no","white","no","yes","768","17","17","/home/ubuntu/Desktop/panara/subject-110.csv","Jazzy James","3.1.3","2.2.5.wav","2.2.3.wav","2.2.3.wav","0","0","NA","0","NA","977","NA","977","NA","3618705","space","2","1024","2","48000","-16","experiment","2.2.3.wav","2.2.5.wav","2.2.3.wav","110","even","3727070","3729531","3729030","3728297","NA","NA","3726070","3730245","754","NA","NA","3726068","3731222","NA","3726068","3619462","NA","3726070","756","New experiment","NA","0","0","0","yes","1024"
"undefined","undefined","undefined","undefined","black","no","legacy","0","uniform","undefined","undefined","undefined","18","18","37","18","18","NA","18","18","0","0","0","18","18","0","18","0","NA","18","0","Tue 02 Jul 2019 12:15:27 PM PDT","500","1000","The main experiment item","yes","NA","ABX_v3.osexp","/home/ubuntu/Desktop/panara","no","no","mono","no","18","no","white","no","yes","768","18","18","/home/ubuntu/Desktop/panara/subject-110.csv","Jazzy James","3.1.3","1.1.1.wav","1.1.3.wav","1.1.3.wav","0","0","NA","0","NA","1470","NA","1470","NA","3618705","space","2","1024","2","48000","-16","experiment","1.1.1.wav","1.1.3.wav","1.1.3.wav","110","even","3732442","3735061","3734561","3733760","NA","NA","3731442","3735863","754","NA","NA","3731439","3737334","NA","3731439","3619462","NA","3731442","756","New experiment","NA","0","0","0","yes","1024"
"undefined","undefined","undefined","undefined","black","no","legacy","0","uniform","undefined","undefined","undefined","19","19","39","19","19","NA","19","19","0","0","0","19","19","0","19","0","NA","19","0","Tue 02 Jul 2019 12:15:27 PM PDT","500","1000","The main experiment item","yes","NA","ABX_v3.osexp","/home/ubuntu/Desktop/panara","no","no","mono","no","18","no","white","no","yes","768","19","19","/home/ubuntu/Desktop/panara/subject-110.csv","Jazzy James","3.1.3","4.2.1.wav","4.2.3.wav","4.2.3.wav","0","1","NA","1","NA","1530","NA","1530","NA","3618705","space","2","1024","2","48000","-16","experiment","4.2.1.wav","4.2.3.wav","4.2.3.wav","110","even","3738514","3740964","3740464","3739731","NA","NA","3737514","3741731","754","NA","NA","3737512","3743261","NA","3737512","3619462","NA","3737514","756","New experiment","NA","0","0","0","yes","1024"
"undefined","undefined","undefined","undefined","black","no","legacy","0","uniform","undefined","undefined","undefined","20","20","41","20","20","NA","20","20","0","0","0","20","20","0","20","0","NA","20","0","Tue 02 Jul 2019 12:15:27 PM PDT","500","1000","The main experiment item","yes","NA","ABX_v3.osexp","/home/ubuntu/Desktop/panara","no","no","mono","no","18","no","white","no","yes","768","20","20","/home/ubuntu/Desktop/panara/subject-110.csv","Jazzy James","3.1.3","1.2.2.wav","1.2.4.wav","1.2.4.wav","0","0","NA","0","NA","2027","NA","2027","NA","3618705","space","2","1024","2","48000","-16","experiment","1.2.2.wav","1.2.4.wav","1.2.4.wav","110","even","3744448","3746979","3746479","3745747","NA","NA","3743448","3747746","754","NA","NA","3743445","3749773","NA","3743445","3619462","NA","3743448","756","New experiment","NA","0","0","0","yes","1024"
"undefined","undefined","undefined","undefined","black","no","legacy","0","uniform","undefined","undefined","undefined","21","21","43","21","21","NA","21","21","0","0","0","21","21","0","21","0","NA","21","0","Tue 02 Jul 2019 12:15:27 PM PDT","500","1000","The main experiment item","yes","NA","ABX_v3.osexp","/home/ubuntu/Desktop/panara","no","no","mono","no","18","no","white","no","yes","768","21","21","/home/ubuntu/Desktop/panara/subject-110.csv","Jazzy James","3.1.3","1.2.2.wav","1.2.2.wav","1.2.4.wav","0","1","NA","1","NA","893","NA","893","NA","3618705","space","2","1024","2","48000","-16","experiment","1.2.2.wav","1.2.4.wav","1.2.2.wav","110","even","3750931","3753482","3752982","3752212","NA","NA","3749930","3754230","754","NA","NA","3749928","3755124","NA","3749928","3619462","NA","3749931","756","New experiment","NA","0","0","0","yes","1024"
"undefined","undefined","undefined","undefined","black","no","legacy","0","uniform","undefined","undefined","undefined","22","22","45","22","22","NA","22","22","0","0","0","22","22","0","22","0","NA","22","0","Tue 02 Jul 2019 12:15:27 PM PDT","500","1000","The main experiment item","yes","NA","ABX_v3.osexp","/home/ubuntu/Desktop/panara","yes","no","mono","no","18","no","white","no","yes","768","22","22","/home/ubuntu/Desktop/panara/subject-110.csv","Jazzy James","3.1.3","3.1.5.wav","3.1.5.wav","3.1.3.wav","0","1","NA","1","NA","1690","NA","1690","NA","3618705","space","2","1024","2","48000","-16","experiment","3.1.3.wav","3.1.5.wav","3.1.5.wav","110","even","3756290","3758844","3758344","3757577","NA","NA","3755290","3759602","754","NA","NA","3755288","3761292","NA","3755287","3619462","NA","3755290","756","New experiment","NA","0","0","0","yes","1024"
"undefined","undefined","undefined","undefined","black","no","legacy","0","uniform","undefined","undefined","undefined","23","23","47","23","23","NA","23","23","0","0","0","23","23","0","23","0","NA","23","0","Tue 02 Jul 2019 12:15:27 PM PDT","500","1000","The main experiment item","yes","NA","ABX_v3.osexp","/home/ubuntu/Desktop/panara","no","no","mono","no","18","no","white","no","yes","768","23","23","/home/ubuntu/Desktop/panara/subject-110.csv","Jazzy James","3.1.3","4.1.2.wav","4.1.2.wav","4.1.4.wav","0","1","NA","1","NA","1261","NA","1261","NA","3618705","space","2","1024","2","48000","-16","experiment","4.1.2.wav","4.1.4.wav","4.1.2.wav","110","even","3762464","3764938","3764438","3763726","NA","NA","3761464","3765686","754","NA","NA","3761462","3766948","NA","3761461","3619462","NA","3761464","756","New experiment","NA","0","0","0","yes","1024"
"undefined","undefined","undefined","undefined","black","no","legacy","0","uniform","undefined","undefined","undefined","24","24","49","24","24","NA","24","24","0","0","0","24","24","0","24","0","NA","24","0","Tue 02 Jul 2019 12:15:27 PM PDT","500","1000","The main experiment item","yes","NA","ABX_v3.osexp","/home/ubuntu/Desktop/panara","yes","no","mono","no","18","no","white","no","yes","768","24","24","/home/ubuntu/Desktop/panara/subject-110.csv","Jazzy James","3.1.3","4.1.5.wav","4.1.3.wav","4.1.3.wav","0","0","NA","0","NA","951","NA","951","NA","3618705","space","2","1024","2","48000","-16","experiment","4.1.3.wav","4.1.5.wav","4.1.3.wav","110","even","3768056","3770484","3769984","3769276","NA","NA","3767056","3771236","754","NA","NA","3767054","3772187","NA","3767054","3619462","NA","3767056","756","New experiment","NA","0","0","0","yes","1024"
"undefined","undefined","undefined","undefined","black","no","legacy","0","uniform","undefined","undefined","undefined","25","25","51","25","25","NA","25","25","0","0","0","25","25","0","25","0","NA","25","0","Tue 02 Jul 2019 12:15:27 PM PDT","500","1000","The main experiment item","yes","NA","ABX_v3.osexp","/home/ubuntu/Desktop/panara","no","no","mono","no","18","no","white","no","yes","768","25","25","/home/ubuntu/Desktop/panara/subject-110.csv","Jazzy James","3.1.3","3.1.1.wav","3.1.1.wav","3.1.3.wav","0","1","NA","1","NA","2182","NA","2182","NA","3618705","space","2","1024","2","48000","-16","experiment","3.1.1.wav","3.1.3.wav","3.1.1.wav","110","even","3773367","3775913","3775413","3774652","NA","NA","3772366","3776669","754","NA","NA","3772363","3778851","NA","3772363","3619462","NA","3772367","756","New experiment","NA","0","0","0","yes","1024"
"undefined","undefined","undefined","undefined","black","no","legacy","0","uniform","undefined","undefined","undefined","26","26","53","26","26","NA","26","26","0","0","0","26","26","0","26","0","NA","26","0","Tue 02 Jul 2019 12:15:27 PM PDT","500","1000","The main experiment item","yes","NA","ABX_v3.osexp","/home/ubuntu/Desktop/panara","yes","no","mono","no","18","no","white","no","yes","768","26","26","/home/ubuntu/Desktop/panara/subject-110.csv","Jazzy James","3.1.3","1.2.3.wav","1.2.1.wav","1.2.1.wav","0","0","NA","0","NA","4095","NA","4095","NA","3618705","space","2","1024","2","48000","-16","experiment","1.2.1.wav","1.2.3.wav","1.2.1.wav","110","even","3780015","3782587","3782087","3781299","NA","NA","3779015","3783371","754","NA","NA","3779013","3787466","NA","3779012","3619462","NA","3779015","756","New experiment","NA","0","0","0","yes","1024"
"undefined","undefined","undefined","undefined","black","no","legacy","0","uniform","undefined","undefined","undefined","27","27","55","27","27","NA","27","27","0","0","0","27","27","0","27","0","NA","27","0","Tue 02 Jul 2019 12:15:27 PM PDT","500","1000","The main experiment item","yes","NA","ABX_v3.osexp","/home/ubuntu/Desktop/panara","no","no","mono","no","18","no","white","no","yes","768","27","27","/home/ubuntu/Desktop/panara/subject-110.csv","Jazzy James","3.1.3","1.1.2.wav","1.1.4.wav","1.1.4.wav","0","0","NA","0","NA","1416","NA","1416","NA","3618705","space","2","1024","2","48000","-16","experiment","1.1.2.wav","1.1.4.wav","1.1.4.wav","110","even","3788660","3791249","3790749","3789961","NA","NA","3787660","3792026","754","NA","NA","3787658","3793442","NA","3787658","3619462","NA","3787660","756","New experiment","NA","0","0","0","yes","1024"
"undefined","undefined","undefined","undefined","black","no","legacy","0","uniform","undefined","undefined","undefined","28","28","57","28","28","NA","28","28","0","0","0","28","28","0","28","0","NA","28","0","Tue 02 Jul 2019 12:15:27 PM PDT","500","1000","The main experiment item","yes","NA","ABX_v3.osexp","/home/ubuntu/Desktop/panara","yes","no","mono","no","18","no","white","no","yes","768","28","28","/home/ubuntu/Desktop/panara/subject-110.csv","Jazzy James","3.1.3","4.1.4.wav","4.1.4.wav","4.1.2.wav","0","1","NA","1","NA","1214","NA","1214","NA","3618705","space","2","1024","2","48000","-16","experiment","4.1.2.wav","4.1.4.wav","4.1.4.wav","110","even","3794601","3797074","3796574","3795852","NA","NA","3793601","3797786","754","NA","NA","3793598","3799001","NA","3793598","3619462","NA","3793601","756","New experiment","NA","0","0","0","yes","1024"
"undefined","undefined","undefined","undefined","black","no","legacy","0","uniform","undefined","undefined","undefined","29","29","59","29","29","NA","29","29","0","0","0","29","29","0","29","0","NA","29","0","Tue 02 Jul 2019 12:15:27 PM PDT","500","1000","The main experiment item","yes","NA","ABX_v3.osexp","/home/ubuntu/Desktop/panara","yes","no","mono","no","18","no","white","no","yes","768","29","29","/home/ubuntu/Desktop/panara/subject-110.csv","Jazzy James","3.1.3","3.2.3.wav","3.2.3.wav","3.2.1.wav","0","1","NA","1","NA","1608","NA","1608","NA","3618705","space","2","1024","2","48000","-16","experiment","3.2.1.wav","3.2.3.wav","3.2.3.wav","110","even","3800168","3802682","3802182","3801428","NA","NA","3799168","3803440","754","NA","NA","3799166","3805048","NA","3799166","3619462","NA","3799168","756","New experiment","NA","0","0","0","yes","1024"
"undefined","undefined","undefined","undefined","black","no","legacy","0","uniform","undefined","undefined","undefined","30","30","61","30","30","NA","30","30","0","0","0","30","30","0","30","0","NA","30","0","Tue 02 Jul 2019 12:15:27 PM PDT","500","1000","The main experiment item","yes","NA","ABX_v3.osexp","/home/ubuntu/Desktop/panara","yes","no","mono","no","18","no","white","no","yes","768","30","30","/home/ubuntu/Desktop/panara/subject-110.csv","Jazzy James","3.1.3","5.2.4.wav","5.2.4.wav","5.2.2.wav","0","1","NA","1","NA","3566","NA","3566","NA","3618705","space","2","1024","2","48000","-16","experiment","5.2.2.wav","5.2.4.wav","5.2.4.wav","110","even","3806215","3808720","3808220","3807465","NA","NA","3805215","3809434","754","NA","NA","3805212","3813000","NA","3805212","3619462","NA","3805215","756","New experiment","NA","0","0","0","yes","1024"
"undefined","undefined","undefined","undefined","black","no","legacy","0","uniform","undefined","undefined","undefined","31","31","63","31","31","NA","31","31","0","0","0","31","31","0","31","0","NA","31","0","Tue 02 Jul 2019 12:15:27 PM PDT","500","1000","The main experiment item","yes","NA","ABX_v3.osexp","/home/ubuntu/Desktop/panara","no","no","mono","no","18","no","white","no","yes","768","31","31","/home/ubuntu/Desktop/panara/subject-110.csv","Jazzy James","3.1.3","1.2.1.wav","1.2.3.wav","1.2.3.wav","0","0","NA","0","NA","777","NA","777","NA","3618705","space","2","1024","2","48000","-16","experiment","1.2.1.wav","1.2.3.wav","1.2.3.wav","110","even","3814172","3816735","3816235","3815459","NA","NA","3813171","3817527","754","NA","NA","3813168","3818304","NA","3813168","3619462","NA","3813172","756","New experiment","NA","0","0","0","yes","1024"
"undefined","undefined","undefined","undefined","black","no","legacy","0","uniform","undefined","undefined","undefined","32","32","65","32","32","NA","32","32","0","0","0","32","32","0","32","0","NA","32","0","Tue 02 Jul 2019 12:15:27 PM PDT","500","1000","The main experiment item","yes","NA","ABX_v3.osexp","/home/ubuntu/Desktop/panara","no","no","mono","no","18","no","white","no","yes","768","32","32","/home/ubuntu/Desktop/panara/subject-110.csv","Jazzy James","3.1.3","2.1.2.wav","2.1.4.wav","2.1.4.wav","0","1","NA","1","NA","1123","NA","1123","NA","3618705","space","2","1024","2","48000","-16","experiment","2.1.2.wav","2.1.4.wav","2.1.4.wav","110","even","3819502","3822046","3821546","3820794","NA","NA","3818501","3822813","754","NA","NA","3818499","3823936","NA","3818499","3619462","NA","3818502","756","New experiment","NA","0","0","0","yes","1024"
"undefined","undefined","undefined","undefined","black","no","legacy","0","uniform","undefined","undefined","undefined","33","33","67","33","33","NA","33","33","0","0","0","33","33","0","33","0","NA","33","0","Tue 02 Jul 2019 12:15:27 PM PDT","500","1000","The main experiment item","yes","NA","ABX_v3.osexp","/home/ubuntu/Desktop/panara","yes","no","mono","no","18","no","white","no","yes","768","33","33","/home/ubuntu/Desktop/panara/subject-110.csv","Jazzy James","3.1.3","2.1.3.wav","2.1.1.wav","2.1.1.wav","0","0","NA","0","NA","864","NA","864","NA","3618705","space","2","1024","2","48000","-16","experiment","2.1.1.wav","2.1.3.wav","2.1.1.wav","110","even","3825076","3827549","3827049","3826314","NA","NA","3824076","3828294","754","NA","NA","3824074","3829159","NA","3824074","3619462","NA","3824076","756","New experiment","NA","0","0","0","yes","1024"
"undefined","undefined","undefined","undefined","black","no","legacy","0","uniform","undefined","undefined","undefined","34","34","69","34","34","NA","34","34","0","0","0","34","34","0","34","0","NA","34","0","Tue 02 Jul 2019 12:15:27 PM PDT","500","1000","The main experiment item","yes","NA","ABX_v3.osexp","/home/ubuntu/Desktop/panara","yes","no","mono","no","18","no","white","no","yes","768","34","34","/home/ubuntu/Desktop/panara/subject-110.csv","Jazzy James","3.1.3","4.1.3.wav","4.1.3.wav","4.1.1.wav","0","1","NA","1","NA","1181","NA","1181","NA","3618705","space","2","1024","2","48000","-16","experiment","4.1.1.wav","4.1.3.wav","4.1.3.wav","110","even","3830346","3832804","3832304","3831587","NA","NA","3829346","3833522","754","NA","NA","3829343","3834703","NA","3829343","3619462","NA","3829346","756","New experiment","NA","0","0","0","yes","1024"
"undefined","undefined","undefined","undefined","black","no","legacy","0","uniform","undefined","undefined","undefined","35","35","71","35","35","NA","35","35","0","0","0","35","35","0","35","0","NA","35","0","Tue 02 Jul 2019 12:15:27 PM PDT","500","1000","The main experiment item","yes","NA","ABX_v3.osexp","/home/ubuntu/Desktop/panara","no","no","mono","no","18","no","white","no","yes","768","35","35","/home/ubuntu/Desktop/panara/subject-110.csv","Jazzy James","3.1.3","3.2.2.wav","3.2.2.wav","3.2.4.wav","0","0","NA","0","NA","1562","NA","1562","NA","3618705","space","2","1024","2","48000","-16","experiment","3.2.2.wav","3.2.4.wav","3.2.2.wav","110","even","3835917","3838474","3837974","3837189","NA","NA","3834916","3839212","754","NA","NA","3834914","3840775","NA","3834913","3619462","NA","3834917","756","New experiment","NA","0","0","0","yes","1024"
"undefined","undefined","undefined","undefined","black","no","legacy","0","uniform","undefined","undefined","undefined","36","36","73","36","36","NA","36","36","0","0","0","36","36","0","36","0","NA","36","0","Tue 02 Jul 2019 12:15:27 PM PDT","500","1000","The main experiment item","yes","NA","ABX_v3.osexp","/home/ubuntu/Desktop/panara","no","no","mono","no","18","no","white","no","yes","768","36","36","/home/ubuntu/Desktop/panara/subject-110.csv","Jazzy James","3.1.3","3.1.1.wav","3.1.3.wav","3.1.3.wav","0","0","NA","0","NA","1486","NA","1486","NA","3618705","space","2","1024","2","48000","-16","experiment","3.1.1.wav","3.1.3.wav","3.1.3.wav","110","even","3841915","3844463","3843963","3843190","NA","NA","3840915","3845232","754","NA","NA","3840912","3846719","NA","3840912","3619462","NA","3840915","756","New experiment","NA","0","0","0","yes","1024"
"undefined","undefined","undefined","undefined","black","no","legacy","0","uniform","undefined","undefined","undefined","37","37","75","37","37","NA","37","37","0","0","0","37","37","0","37","0","NA","37","0","Tue 02 Jul 2019 12:15:27 PM PDT","500","1000","The main experiment item","yes","NA","ABX_v3.osexp","/home/ubuntu/Desktop/panara","no","no","mono","no","18","no","white","no","yes","768","37","37","/home/ubuntu/Desktop/panara/subject-110.csv","Jazzy James","3.1.3","3.1.3.wav","3.1.3.wav","3.1.5.wav","0","1","NA","1","NA","737","NA","737","NA","3618705","space","2","1024","2","48000","-16","experiment","3.1.3.wav","3.1.5.wav","3.1.3.wav","110","even","3847907","3850424","3849924","3849177","NA","NA","3846907","3851197","754","NA","NA","3846904","3851934","NA","3846904","3619462","NA","3846907","756","New experiment","NA","0","0","0","yes","1024"
"undefined","undefined","undefined","undefined","black","no","legacy","0","uniform","undefined","undefined","undefined","38","38","77","38","38","NA","38","38","0","0","0","38","38","0","38","0","NA","38","0","Tue 02 Jul 2019 12:15:27 PM PDT","500","1000","The main experiment item","yes","NA","ABX_v3.osexp","/home/ubuntu/Desktop/panara","yes","no","mono","no","18","no","white","no","yes","768","38","38","/home/ubuntu/Desktop/panara/subject-110.csv","Jazzy James","3.1.3","3.2.5.wav","3.2.5.wav","3.2.3.wav","0","1","NA","1","NA","857","NA","857","NA","3618705","space","2","1024","2","48000","-16","experiment","3.2.3.wav","3.2.5.wav","3.2.5.wav","110","even","3853087","3855666","3855166","3854382","NA","NA","3852087","3856436","754","NA","NA","3852084","3857294","NA","3852084","3619462","NA","3852087","756","New experiment","NA","0","0","0","yes","1024"
"undefined","undefined","undefined","undefined","black","no","legacy","0","uniform","undefined","undefined","undefined","39","39","79","39","39","NA","39","39","0","0","0","39","39","0","39","0","NA","39","0","Tue 02 Jul 2019 12:15:27 PM PDT","500","1000","The main experiment item","yes","NA","ABX_v3.osexp","/home/ubuntu/Desktop/panara","no","no","mono","no","18","no","white","no","yes","768","39","39","/home/ubuntu/Desktop/panara/subject-110.csv","Jazzy James","3.1.3","2.1.3.wav","2.1.5.wav","2.1.5.wav","0","0","NA","0","NA","584","NA","584","NA","3618705","space","2","1024","2","48000","-16","experiment","2.1.3.wav","2.1.5.wav","2.1.5.wav","110","even","3858450","3860934","3860434","3859699","NA","NA","3857450","3861701","754","NA","NA","3857448","3862286","NA","3857448","3619462","NA","3857450","756","New experiment","NA","0","0","0","yes","1024"
"undefined","undefined","undefined","undefined","black","no","legacy","0","uniform","undefined","undefined","undefined","40","40","81","40","40","NA","40","40","0","0","0","40","40","0","40","0","NA","40","0","Tue 02 Jul 2019 12:15:27 PM PDT","500","1000","The main experiment item","yes","NA","ABX_v3.osexp","/home/ubuntu/Desktop/panara","yes","no","mono","no","18","no","white","no","yes","768","40","40","/home/ubuntu/Desktop/panara/subject-110.csv","Jazzy James","3.1.3","1.2.5.wav","1.2.3.wav","1.2.3.wav","0","0","NA","0","NA","786","NA","786","NA","3618705","space","2","1024","2","48000","-16","experiment","1.2.3.wav","1.2.5.wav","1.2.3.wav","110","even","3863449","3865986","3865486","3864714","NA","NA","3862448","3866779","754","NA","NA","3862445","3867565","NA","3862445","3619462","NA","3862449","756","New experiment","NA","0","0","0","yes","1024"
"undefined","undefined","undefined","undefined","black","no","legacy","0","uniform","undefined","undefined","undefined","41","41","83","41","41","NA","41","41","0","0","0","41","41","0","41","0","NA","41","0","Tue 02 Jul 2019 12:15:27 PM PDT","500","1000","The main experiment item","yes","NA","ABX_v3.osexp","/home/ubuntu/Desktop/panara","no","no","mono","no","18","no","white","no","yes","768","41","41","/home/ubuntu/Desktop/panara/subject-110.csv","Jazzy James","3.1.3","2.2.2.wav","2.2.2.wav","2.2.4.wav","0","1","NA","1","NA","1107","NA","1107","NA","3618705","space","2","1024","2","48000","-16","experiment","2.2.2.wav","2.2.4.wav","2.2.2.wav","110","even","3868766","3871234","3870734","3870002","NA","NA","3867766","3871984","754","NA","NA","3867764","3873092","NA","3867764","3619462","NA","3867766","756","New experiment","NA","0","0","0","yes","1024"
"undefined","undefined","undefined","undefined","black","no","legacy","0","uniform","undefined","undefined","undefined","42","42","85","42","42","NA","42","42","0","0","0","42","42","0","42","0","NA","42","0","Tue 02 Jul 2019 12:15:27 PM PDT","500","1000","The main experiment item","yes","NA","ABX_v3.osexp","/home/ubuntu/Desktop/panara","yes","no","mono","no","18","no","white","no","yes","768","42","42","/home/ubuntu/Desktop/panara/subject-110.csv","Jazzy James","3.1.3","3.2.4.wav","3.2.4.wav","3.2.2.wav","0","1","NA","1","NA","1391","NA","1391","NA","3618705","space","2","1024","2","48000","-16","experiment","3.2.2.wav","3.2.4.wav","3.2.4.wav","110","even","3874262","3876764","3876264","3875526","NA","NA","3873261","3877533","754","NA","NA","3873258","3878924","NA","3873258","3619462","NA","3873262","756","New experiment","NA","0","0","0","yes","1024"
"undefined","undefined","undefined","undefined","black","no","legacy","0","uniform","undefined","undefined","undefined","43","43","87","43","43","NA","43","43","0","0","0","43","43","0","43","0","NA","43","0","Tue 02 Jul 2019 12:15:27 PM PDT","500","1000","The main experiment item","yes","NA","ABX_v3.osexp","/home/ubuntu/Desktop/panara","no","no","mono","no","18","no","white","no","yes","768","43","43","/home/ubuntu/Desktop/panara/subject-110.csv","Jazzy James","3.1.3","5.2.3.wav","5.2.5.wav","5.2.5.wav","0","0","NA","0","NA","1563","NA","1563","NA","3618705","space","2","1024","2","48000","-16","experiment","5.2.3.wav","5.2.5.wav","5.2.5.wav","110","even","3880079","3882531","3882031","3881312","NA","NA","3879078","3883265","754","NA","NA","3879075","3884828","NA","3879075","3619462","NA","3879079","756","New experiment","NA","0","0","0","yes","1024"
"undefined","undefined","undefined","undefined","black","no","legacy","0","uniform","undefined","undefined","undefined","44","44","89","44","44","NA","44","44","0","0","0","44","44","0","44","0","NA","44","0","Tue 02 Jul 2019 12:15:27 PM PDT","500","1000","The main experiment item","yes","NA","ABX_v3.osexp","/home/ubuntu/Desktop/panara","yes","no","mono","no","18","no","white","no","yes","768","44","44","/home/ubuntu/Desktop/panara/subject-110.csv","Jazzy James","3.1.3","1.1.4.wav","1.1.2.wav","1.1.2.wav","0","0","NA","0","NA","2605","NA","2605","NA","3618705","space","2","1024","2","48000","-16","experiment","1.1.2.wav","1.1.4.wav","1.1.2.wav","110","even","3886000","3888581","3888081","3887285","NA","NA","3884999","3889390","754","NA","NA","3884997","3891996","NA","3884997","3619462","NA","3885000","756","New experiment","NA","0","0","0","yes","1024"
"undefined","undefined","undefined","undefined","black","no","legacy","0","uniform","undefined","undefined","undefined","45","45","91","45","45","NA","45","45","0","0","0","45","45","0","45","0","NA","45","0","Tue 02 Jul 2019 12:15:27 PM PDT","500","1000","The main experiment item","yes","NA","ABX_v3.osexp","/home/ubuntu/Desktop/panara","yes","no","mono","no","18","no","white","no","yes","768","45","45","/home/ubuntu/Desktop/panara/subject-110.csv","Jazzy James","3.1.3","4.1.3.wav","4.1.1.wav","4.1.1.wav","0","1","NA","1","NA","1415","NA","1415","NA","3618705","space","2","1024","2","48000","-16","experiment","4.1.1.wav","4.1.3.wav","4.1.1.wav","110","even","3893174","3895659","3895159","3894432","NA","NA","3892174","3896404","754","NA","NA","3892171","3897819","NA","3892171","3619462","NA","3892174","756","New experiment","NA","0","0","0","yes","1024"
"undefined","undefined","undefined","undefined","black","no","legacy","0","uniform","undefined","undefined","undefined","46","46","93","46","46","NA","46","46","0","0","0","46","46","0","46","0","NA","46","0","Tue 02 Jul 2019 12:15:27 PM PDT","500","1000","The main experiment item","yes","NA","ABX_v3.osexp","/home/ubuntu/Desktop/panara","no","no","mono","no","18","no","white","no","yes","768","46","46","/home/ubuntu/Desktop/panara/subject-110.csv","Jazzy James","3.1.3","4.2.2.wav","4.2.2.wav","4.2.4.wav","0","1","NA","1","NA","1439","NA","1439","NA","3618705","space","2","1024","2","48000","-16","experiment","4.2.2.wav","4.2.4.wav","4.2.2.wav","110","even","3899004","3901495","3900995","3900255","NA","NA","3898003","3902211","754","NA","NA","3898001","3903651","NA","3898000","3619462","NA","3898004","756","New experiment","NA","0","0","0","yes","1024"
"undefined","undefined","undefined","undefined","black","no","legacy","0","uniform","undefined","undefined","undefined","47","47","95","47","47","NA","47","47","0","0","0","47","47","0","47","0","NA","47","0","Tue 02 Jul 2019 12:15:27 PM PDT","500","1000","The main experiment item","yes","NA","ABX_v3.osexp","/home/ubuntu/Desktop/panara","yes","no","mono","no","18","no","white","no","yes","768","47","47","/home/ubuntu/Desktop/panara/subject-110.csv","Jazzy James","3.1.3","3.2.3.wav","3.2.1.wav","3.2.1.wav","0","0","NA","0","NA","1089","NA","1089","NA","3618705","space","2","1024","2","48000","-16","experiment","3.2.1.wav","3.2.3.wav","3.2.1.wav","110","even","3904810","3907298","3906798","3906039","NA","NA","3903810","3908032","754","NA","NA","3903808","3909121","NA","3903808","3619462","NA","3903810","756","New experiment","NA","0","0","0","yes","1024"
"undefined","undefined","undefined","undefined","black","no","legacy","0","uniform","undefined","undefined","undefined","48","48","97","48","48","NA","48","48","0","0","0","48","48","0","48","0","NA","48","0","Tue 02 Jul 2019 12:15:27 PM PDT","500","1000","The main experiment item","yes","NA","ABX_v3.osexp","/home/ubuntu/Desktop/panara","yes","no","mono","no","18","no","white","no","yes","768","48","48","/home/ubuntu/Desktop/panara/subject-110.csv","Jazzy James","3.1.3","5.2.4.wav","5.2.2.wav","5.2.2.wav","0","0","NA","0","NA","1359","NA","1359","NA","3618705","space","2","1024","2","48000","-16","experiment","5.2.2.wav","5.2.4.wav","5.2.2.wav","110","even","3910283","3912756","3912256","3911511","NA","NA","3909283","3913491","754","NA","NA","3909280","3914850","NA","3909280","3619462","NA","3909283","756","New experiment","NA","0","0","0","yes","1024"
"undefined","undefined","undefined","undefined","black","no","legacy","0","uniform","undefined","undefined","undefined","49","49","99","49","49","NA","49","49","0","0","0","49","49","0","49","0","NA","49","0","Tue 02 Jul 2019 12:15:27 PM PDT","500","1000","The main experiment item","yes","NA","ABX_v3.osexp","/home/ubuntu/Desktop/panara","no","no","mono","no","18","no","white","no","yes","768","49","49","/home/ubuntu/Desktop/panara/subject-110.csv","Jazzy James","3.1.3","2.2.1.wav","2.2.3.wav","2.2.3.wav","0","0","NA","0","NA","1500","NA","1500","NA","3618705","space","2","1024","2","48000","-16","experiment","2.2.1.wav","2.2.3.wav","2.2.3.wav","110","even","3916033","3918489","3917989","3917282","NA","NA","3915033","3919237","754","NA","NA","3915030","3920738","NA","3915030","3619462","NA","3915033","756","New experiment","NA","0","0","0","yes","1024"
"undefined","undefined","undefined","undefined","black","no","legacy","0","uniform","undefined","undefined","undefined","50","50","101","50","50","NA","50","50","0","0","0","50","50","0","50","0","NA","50","0","Tue 02 Jul 2019 12:15:27 PM PDT","500","1000","The main experiment item","yes","NA","ABX_v3.osexp","/home/ubuntu/Desktop/panara","yes","no","mono","no","18","no","white","no","yes","768","50","50","/home/ubuntu/Desktop/panara/subject-110.csv","Jazzy James","3.1.3","2.2.5.wav","2.2.5.wav","2.2.3.wav","0","1","r","1","NA","1426","15737","1426","NA","3618705","space","2","1024","2","48000","-16","experiment","2.2.3.wav","2.2.5.wav","2.2.5.wav","110","even","3937612","3940080","3939580","3938866","3920871","NA","3936611","3940838","754","NA","NA","3920869","3942264","NA","3920869","3619462","NA","3936612","756","New experiment","NA","0","0","0","yes","1024"
"undefined","undefined","undefined","undefined","black","no","legacy","0","uniform","undefined","undefined","undefined","51","51","103","51","51","NA","51","51","0","0","0","51","51","0","51","0","NA","51","0","Tue 02 Jul 2019 12:15:27 PM PDT","500","1000","The main experiment item","yes","NA","ABX_v3.osexp","/home/ubuntu/Desktop/panara","no","no","mono","no","18","no","white","no","yes","768","51","51","/home/ubuntu/Desktop/panara/subject-110.csv","Jazzy James","3.1.3","5.2.1.wav","5.2.1.wav","5.2.3.wav","0","1","r","1","NA","1569","15737","1569","NA","3618705","space","2","1024","2","48000","-16","experiment","5.2.1.wav","5.2.3.wav","5.2.1.wav","110","even","3943430","3945866","3945366","3944649","3920871","NA","3942430","3946581","754","NA","NA","3942428","3948151","NA","3942428","3619462","NA","3942430","756","New experiment","NA","0","0","0","yes","1024"
"undefined","undefined","undefined","undefined","black","no","legacy","0","uniform","undefined","undefined","undefined","52","52","105","52","52","NA","52","52","0","0","0","52","52","0","52","0","NA","52","0","Tue 02 Jul 2019 12:15:27 PM PDT","500","1000","The main experiment item","yes","NA","ABX_v3.osexp","/home/ubuntu/Desktop/panara","no","no","mono","no","18","no","white","no","yes","768","52","52","/home/ubuntu/Desktop/panara/subject-110.csv","Jazzy James","3.1.3","1.2.3.wav","1.2.5.wav","1.2.5.wav","0","1","r","1","NA","988","15737","988","NA","3618705","space","2","1024","2","48000","-16","experiment","1.2.3.wav","1.2.5.wav","1.2.5.wav","110","even","3949327","3951912","3951412","3950610","3920871","NA","3948326","3952699","754","NA","NA","3948324","3953688","NA","3948324","3619462","NA","3948327","756","New experiment","NA","0","0","0","yes","1024"
"undefined","undefined","undefined","undefined","black","no","legacy","0","uniform","undefined","undefined","undefined","53","53","107","53","53","NA","53","53","0","0","0","53","53","0","53","0","NA","53","0","Tue 02 Jul 2019 12:15:27 PM PDT","500","1000","The main experiment item","yes","NA","ABX_v3.osexp","/home/ubuntu/Desktop/panara","yes","no","mono","no","18","no","white","no","yes","768","53","53","/home/ubuntu/Desktop/panara/subject-110.csv","Jazzy James","3.1.3","3.1.4.wav","3.1.2.wav","3.1.2.wav","0","0","r","0","NA","748","15737","748","NA","3618705","space","2","1024","2","48000","-16","experiment","3.1.2.wav","3.1.4.wav","3.1.2.wav","110","even","3954872","3957442","3956942","3956166","3920871","NA","3953871","3958219","754","NA","NA","3953869","3958967","NA","3953869","3619462","NA","3953872","756","New experiment","NA","0","0","0","yes","1024"
"undefined","undefined","undefined","undefined","black","no","legacy","0","uniform","undefined","undefined","undefined","54","54","109","54","54","NA","54","54","0","0","0","54","54","0","54","0","NA","54","0","Tue 02 Jul 2019 12:15:27 PM PDT","500","1000","The main experiment item","yes","NA","ABX_v3.osexp","/home/ubuntu/Desktop/panara","no","no","mono","no","18","no","white","no","yes","768","0","53","/home/ubuntu/Desktop/panara/subject-110.csv","Jazzy James","3.1.3","4.1.2.wav","3.1.2.wav","3.1.4.wav","0","1","r","1","NA","1243","15737","1243","NA","3618705","space","2","1024","2","48000","-16","experiment","4.1.2.wav","3.1.4.wav","3.1.2.wav","110","even","3960198","3962689","3962189","3961405","3920871","NA","3959198","3963467","754","NA","NA","3959195","3964711","3959080","3959195","3619462","NA","3959198","756","New experiment","NA","0","0","0","yes","1024"
"undefined","undefined","undefined","undefined","black","no","legacy","0","uniform","undefined","undefined","undefined","55","55","111","55","55","NA","55","55","0","0","0","55","55","0","55","0","NA","55","0","Tue 02 Jul 2019 12:15:27 PM PDT","500","1000","The main experiment item","yes","NA","ABX_v3.osexp","/home/ubuntu/Desktop/panara","yes","no","mono","no","18","no","white","no","yes","768","1","53","/home/ubuntu/Desktop/panara/subject-110.csv","Jazzy James","3.1.3","3.1.3.wav","3.2.3.wav","3.2.1.wav","0","1","r","1","NA","653","15737","653","NA","3618705","space","2","1024","2","48000","-16","experiment","3.2.1.wav","3.1.3.wav","3.2.3.wav","110","even","3965928","3968412","3967912","3967172","3920871","NA","3964928","3969161","754","NA","NA","3964926","3969814","3959080","3964926","3619462","NA","3964928","756","New experiment","NA","0","0","0","yes","1024"
"undefined","undefined","undefined","undefined","black","no","legacy","0","uniform","undefined","undefined","undefined","56","56","113","56","56","NA","56","56","0","0","0","56","56","0","56","0","NA","56","0","Tue 02 Jul 2019 12:15:27 PM PDT","500","1000","The main experiment item","yes","NA","ABX_v3.osexp","/home/ubuntu/Desktop/panara","yes","no","mono","no","18","no","white","no","yes","768","2","53","/home/ubuntu/Desktop/panara/subject-110.csv","Jazzy James","3.1.3","3.2.5.wav","3.2.3.wav","3.1.3.wav","0","1","r","1","NA","770","15737","770","NA","3618705","space","2","1024","2","48000","-16","experiment","3.1.3.wav","3.2.5.wav","3.2.3.wav","110","even","3970973","3973511","3973011","3972272","3920871","NA","3969973","3974283","754","NA","NA","3969971","3975053","3959080","3969971","3619462","NA","3969973","756","New experiment","NA","0","0","0","yes","1024"
"undefined","undefined","undefined","undefined","black","no","legacy","0","uniform","undefined","undefined","undefined","57","57","115","57","57","NA","57","57","0","0","0","57","57","0","57","0","NA","57","0","Tue 02 Jul 2019 12:15:27 PM PDT","500","1000","The main experiment item","yes","NA","ABX_v3.osexp","/home/ubuntu/Desktop/panara","no","no","mono","no","18","no","white","no","yes","768","3","53","/home/ubuntu/Desktop/panara/subject-110.csv","Jazzy James","3.1.3","3.1.2.wav","3.1.4.wav","4.1.4.wav","0","0","r","0","NA","1085","15737","1085","NA","3618705","space","2","1024","2","48000","-16","experiment","3.1.2.wav","4.1.4.wav","3.1.4.wav","110","even","3976181","3978738","3978238","3977451","3920871","NA","3975181","3979496","754","NA","NA","3975177","3980582","3959080","3975177","3619462","NA","3975181","756","New experiment","NA","0","0","0","yes","1024"
"undefined","undefined","undefined","undefined","black","no","legacy","0","uniform","undefined","undefined","undefined","58","58","117","58","58","NA","58","58","0","0","0","58","58","0","58","0","NA","58","0","Tue 02 Jul 2019 12:15:27 PM PDT","500","1000","The main experiment item","yes","NA","ABX_v3.osexp","/home/ubuntu/Desktop/panara","no","no","mono","no","18","no","white","no","yes","768","4","53","/home/ubuntu/Desktop/panara/subject-110.csv","Jazzy James","3.1.3","1.1.2.wav","1.1.4.wav","2.1.4.wav","0","0","r","0","NA","1275","15737","1275","NA","3618705","space","2","1024","2","48000","-16","experiment","1.1.2.wav","2.1.4.wav","1.1.4.wav","110","even","3981773","3984357","3983857","3983065","3920871","NA","3980773","3985106","754","NA","NA","3980771","3986381","3959080","3980771","3619462","NA","3980773","756","New experiment","NA","0","0","0","yes","1024"
"undefined","undefined","undefined","undefined","black","no","legacy","0","uniform","undefined","undefined","undefined","59","59","119","59","59","NA","59","59","0","0","0","59","59","0","59","0","NA","59","0","Tue 02 Jul 2019 12:15:27 PM PDT","500","1000","The main experiment item","yes","NA","ABX_v3.osexp","/home/ubuntu/Desktop/panara","no","no","mono","no","18","no","white","no","yes","768","5","53","/home/ubuntu/Desktop/panara/subject-110.csv","Jazzy James","3.1.3","4.2.3.wav","4.2.5.wav","3.2.5.wav","0","0","r","0","NA","957","15737","957","NA","3618705","space","2","1024","2","48000","-16","experiment","4.2.3.wav","3.2.5.wav","4.2.5.wav","110","even","3987508","3989969","3989469","3988752","3920871","NA","3986508","3990759","754","NA","NA","3986505","3991717","3959080","3986505","3619462","NA","3986508","756","New experiment","NA","0","0","0","yes","1024"
"undefined","undefined","undefined","undefined","black","no","legacy","0","uniform","undefined","undefined","undefined","60","60","121","60","60","NA","60","60","0","0","0","60","60","0","60","0","NA","60","0","Tue 02 Jul 2019 12:15:27 PM PDT","500","1000","The main experiment item","yes","NA","ABX_v3.osexp","/home/ubuntu/Desktop/panara","no","no","mono","no","18","no","white","no","yes","768","6","53","/home/ubuntu/Desktop/panara/subject-110.csv","Jazzy James","3.1.3","4.1.1.wav","4.1.3.wav","3.1.3.wav","0","0","r","0","NA","2074","15737","2074","NA","3618705","space","2","1024","2","48000","-16","experiment","4.1.1.wav","3.1.3.wav","4.1.3.wav","110","even","3992909","3995415","3994915","3994170","3920871","NA","3991908","3996154","754","NA","NA","3991906","3998229","3959080","3991906","3619462","NA","3991909","756","New experiment","NA","0","0","0","yes","1024"
"undefined","undefined","undefined","undefined","black","no","legacy","0","uniform","undefined","undefined","undefined","61","61","123","61","61","NA","61","61","0","0","0","61","61","0","61","0","NA","61","0","Tue 02 Jul 2019 12:15:27 PM PDT","500","1000","The main experiment item","yes","NA","ABX_v3.osexp","/home/ubuntu/Desktop/panara","no","no","mono","no","18","no","white","no","yes","768","7","53","/home/ubuntu/Desktop/panara/subject-110.csv","Jazzy James","3.1.3","1.1.1.wav","1.1.3.wav","1.2.3.wav","0","0","r","0","NA","544","15737","544","NA","3618705","space","2","1024","2","48000","-16","experiment","1.1.1.wav","1.2.3.wav","1.1.3.wav","110","even","3999409","4001990","4001490","4000698","3920871","NA","3998408","4002764","754","NA","NA","3998406","4003308","3959080","3998406","3619462","NA","3998408","756","New experiment","NA","0","0","0","yes","1024"
"undefined","undefined","undefined","undefined","black","no","legacy","0","uniform","undefined","undefined","undefined","62","62","125","62","62","NA","62","62","0","0","0","62","62","0","62","0","NA","62","0","Tue 02 Jul 2019 12:15:27 PM PDT","500","1000","The main experiment item","yes","NA","ABX_v3.osexp","/home/ubuntu/Desktop/panara","yes","no","mono","no","18","no","white","no","yes","768","8","53","/home/ubuntu/Desktop/panara/subject-110.csv","Jazzy James","3.1.3","2.1.3.wav","2.1.1.wav","4.1.1.wav","0","0","r","0","NA","697","15737","697","NA","3618705","space","2","1024","2","48000","-16","experiment","4.1.1.wav","2.1.3.wav","2.1.1.wav","110","even","4004476","4007000","4006500","4005736","3920871","NA","4003476","4007714","754","NA","NA","4003473","4008412","3959080","4003473","3619462","NA","4003476","756","New experiment","NA","0","0","0","yes","1024"
"undefined","undefined","undefined","undefined","black","no","legacy","0","uniform","undefined","undefined","undefined","63","63","127","63","63","NA","63","63","0","0","0","63","63","0","63","0","NA","63","0","Tue 02 Jul 2019 12:15:27 PM PDT","500","1000","The main experiment item","yes","NA","ABX_v3.osexp","/home/ubuntu/Desktop/panara","no","no","mono","no","18","no","white","no","yes","768","9","53","/home/ubuntu/Desktop/panara/subject-110.csv","Jazzy James","3.1.3","3.1.1.wav","3.1.3.wav","4.1.3.wav","0","0","r","0","NA","879","15737","879","NA","3618705","space","2","1024","2","48000","-16","experiment","3.1.1.wav","4.1.3.wav","3.1.3.wav","110","even","4009599","4012134","4011634","4010865","3920871","NA","4008598","4013012","754","NA","NA","4008596","4013892","3959080","4008596","3619462","NA","4008599","756","New experiment","NA","0","0","0","yes","1024"
"undefined","undefined","undefined","undefined","black","no","legacy","0","uniform","undefined","undefined","undefined","64","64","129","64","64","NA","64","64","0","0","0","64","64","0","64","0","NA","64","0","Tue 02 Jul 2019 12:15:27 PM PDT","500","1000","The main experiment item","yes","NA","ABX_v3.osexp","/home/ubuntu/Desktop/panara","no","no","mono","no","18","no","white","no","yes","768","10","53","/home/ubuntu/Desktop/panara/subject-110.csv","Jazzy James","3.1.3","4.1.3.wav","4.1.5.wav","3.1.5.wav","0","1","r","1","NA","1771","15737","1771","NA","3618705","space","2","1024","2","48000","-16","experiment","4.1.3.wav","3.1.5.wav","4.1.5.wav","110","even","4015058","4017544","4017044","4016323","3920871","NA","4014058","4018327","754","NA","NA","4014055","4020098","3959080","4014055","3619462","NA","4014058","756","New experiment","NA","0","0","0","yes","1024"
"undefined","undefined","undefined","undefined","black","no","legacy","0","uniform","undefined","undefined","undefined","65","65","131","65","65","NA","65","65","0","0","0","65","65","0","65","0","NA","65","0","Tue 02 Jul 2019 12:15:27 PM PDT","500","1000","The main experiment item","yes","NA","ABX_v3.osexp","/home/ubuntu/Desktop/panara","no","no","mono","no","18","no","white","no","yes","768","11","53","/home/ubuntu/Desktop/panara/subject-110.csv","Jazzy James","3.1.3","1.1.2.wav","2.1.2.wav","2.1.4.wav","0","1","r","1","NA","1160","15737","1160","NA","3618705","space","2","1024","2","48000","-16","experiment","1.1.2.wav","2.1.4.wav","2.1.2.wav","110","even","4021273","4023824","4023324","4022572","3920871","NA","4020273","4024578","754","NA","NA","4020270","4025739","3959080","4020270","3619462","NA","4020273","756","New experiment","NA","0","0","0","yes","1024"
"undefined","undefined","undefined","undefined","black","no","legacy","0","uniform","undefined","undefined","undefined","66","66","133","66","66","NA","66","66","0","0","0","66","66","0","66","0","NA","66","0","Tue 02 Jul 2019 12:15:27 PM PDT","500","1000","The main experiment item","yes","NA","ABX_v3.osexp","/home/ubuntu/Desktop/panara","no","no","mono","no","18","no","white","no","yes","768","12","53","/home/ubuntu/Desktop/panara/subject-110.csv","Jazzy James","3.1.3","4.2.3.wav","2.2.3.wav","2.2.5.wav","0","1","r","1","NA","1584","15737","1584","NA","3618705","space","2","1024","2","48000","-16","experiment","4.2.3.wav","2.2.5.wav","2.2.3.wav","110","even","4026906","4029421","4028921","4028175","3920871","NA","4025906","4030138","754","NA","NA","4025903","4031723","3959080","4025903","3619462","NA","4025906","756","New experiment","NA","0","0","0","yes","1024"
"undefined","undefined","undefined","undefined","black","no","legacy","0","uniform","undefined","undefined","undefined","67","67","135","67","67","NA","67","67","0","0","0","67","67","0","67","0","NA","67","0","Tue 02 Jul 2019 12:15:27 PM PDT","500","1000","The main experiment item","yes","NA","ABX_v3.osexp","/home/ubuntu/Desktop/panara","yes","no","mono","no","18","no","white","no","yes","768","13","53","/home/ubuntu/Desktop/panara/subject-110.csv","Jazzy James","3.1.3","4.2.4.wav","4.2.2.wav","3.2.2.wav","0","0","r","0","NA","1328","15737","1328","NA","3618705","space","2","1024","2","48000","-16","experiment","3.2.2.wav","4.2.4.wav","4.2.2.wav","110","even","4032884","4035356","4034856","4034135","3920871","NA","4031883","4036138","754","NA","NA","4031881","4037466","3959080","4031880","3619462","NA","4031884","756","New experiment","NA","0","0","0","yes","1024"
"undefined","undefined","undefined","undefined","black","no","legacy","0","uniform","undefined","undefined","undefined","68","68","137","68","68","NA","68","68","0","0","0","68","68","0","68","0","NA","68","0","Tue 02 Jul 2019 12:15:27 PM PDT","500","1000","The main experiment item","yes","NA","ABX_v3.osexp","/home/ubuntu/Desktop/panara","no","no","mono","no","18","no","white","no","yes","768","14","53","/home/ubuntu/Desktop/panara/subject-110.csv","Jazzy James","3.1.3","4.2.2.wav","4.2.4.wav","3.2.4.wav","0","0","r","0","NA","1262","15737","1262","NA","3618705","space","2","1024","2","48000","-16","experiment","4.2.2.wav","3.2.4.wav","4.2.4.wav","110","even","4038631","4041095","4040595","4039873","3920871","NA","4037630","4041850","754","NA","NA","4037628","4043113","3959080","4037628","3619462","NA","4037631","756","New experiment","NA","0","0","0","yes","1024"
"undefined","undefined","undefined","undefined","black","no","legacy","0","uniform","undefined","undefined","undefined","69","69","139","69","69","NA","69","69","0","0","0","69","69","0","69","0","NA","69","0","Tue 02 Jul 2019 12:15:27 PM PDT","500","1000","The main experiment item","yes","NA","ABX_v3.osexp","/home/ubuntu/Desktop/panara","yes","no","mono","no","18","no","white","no","yes","768","15","53","/home/ubuntu/Desktop/panara/subject-110.csv","Jazzy James","3.1.3","4.1.4.wav","2.1.4.wav","2.1.2.wav","0","0","r","0","NA","1314","15737","1314","NA","3618705","space","2","1024","2","48000","-16","experiment","2.1.2.wav","4.1.4.wav","2.1.4.wav","110","even","4044291","4046755","4046255","4045504","3920871","NA","4043291","4047503","754","NA","NA","4043288","4048817","3959080","4043288","3619462","NA","4043291","756","New experiment","NA","0","0","0","yes","1024"
"undefined","undefined","undefined","undefined","black","no","legacy","0","uniform","undefined","undefined","undefined","70","70","141","70","70","NA","70","70","0","0","0","70","70","0","70","0","NA","70","0","Tue 02 Jul 2019 12:15:27 PM PDT","500","1000","The main experiment item","yes","NA","ABX_v3.osexp","/home/ubuntu/Desktop/panara","no","no","mono","no","18","no","white","no","yes","768","16","53","/home/ubuntu/Desktop/panara/subject-110.csv","Jazzy James","3.1.3","1.1.2.wav","1.1.4.wav","3.1.4.wav","0","3","r","3","NA","1308","15737","1308","NA","3618705","space","2","1024","2","48000","-16","experiment","1.1.2.wav","3.1.4.wav","1.1.4.wav","110","even","4049997","4052565","4052065","4051285","3920871","NA","4048997","4053348","754","NA","NA","4048995","4054657","3959080","4048994","3619462","NA","4048997","756","New experiment","NA","0","0","0","yes","1024"
"undefined","undefined","undefined","undefined","black","no","legacy","0","uniform","undefined","undefined","undefined","71","71","143","71","71","NA","71","71","0","0","0","71","71","0","71","0","NA","71","0","Tue 02 Jul 2019 12:15:27 PM PDT","500","1000","The main experiment item","yes","NA","ABX_v3.osexp","/home/ubuntu/Desktop/panara","no","no","mono","no","18","no","white","no","yes","768","17","53","/home/ubuntu/Desktop/panara/subject-110.csv","Jazzy James","3.1.3","2.1.1.wav","1.1.1.wav","1.1.3.wav","0","1","r","1","NA","2024","15737","2024","NA","3618705","space","2","1024","2","48000","-16","experiment","2.1.1.wav","1.1.3.wav","1.1.1.wav","110","even","4055837","4058389","4057889","4057089","3920871","NA","4054837","4059192","754","NA","NA","4054834","4061217","3959080","4054834","3619462","NA","4054837","756","New experiment","NA","0","0","0","yes","1024"
"undefined","undefined","undefined","undefined","black","no","legacy","0","uniform","undefined","undefined","undefined","72","72","145","72","72","NA","72","72","0","0","0","72","72","0","72","0","NA","72","0","Tue 02 Jul 2019 12:15:27 PM PDT","500","1000","The main experiment item","yes","NA","ABX_v3.osexp","/home/ubuntu/Desktop/panara","yes","no","mono","no","18","no","white","no","yes","768","18","53","/home/ubuntu/Desktop/panara/subject-110.csv","Jazzy James","3.1.3","2.1.3.wav","4.1.3.wav","4.1.1.wav","0","1","r","1","NA","1414","15737","1414","NA","3618705","space","2","1024","2","48000","-16","experiment","4.1.1.wav","2.1.3.wav","4.1.3.wav","110","even","4062373","4064838","4064338","4063615","3920871","NA","4061373","4065593","754","NA","NA","4061371","4067007","3959080","4061370","3619462","NA","4061373","756","New experiment","NA","0","0","0","yes","1024"
"undefined","undefined","undefined","undefined","black","no","legacy","0","uniform","undefined","undefined","undefined","73","73","147","73","73","NA","73","73","0","0","0","73","73","0","73","0","NA","73","0","Tue 02 Jul 2019 12:15:27 PM PDT","500","1000","The main experiment item","yes","NA","ABX_v3.osexp","/home/ubuntu/Desktop/panara","yes","no","mono","no","18","no","white","no","yes","768","19","53","/home/ubuntu/Desktop/panara/subject-110.csv","Jazzy James","3.1.3","2.2.5.wav","4.2.5.wav","4.2.3.wav","0","1","r","1","NA","967","15737","967","NA","3618705","space","2","1024","2","48000","-16","experiment","4.2.3.wav","2.2.5.wav","4.2.5.wav","110","even","4068151","4070596","4070096","4069375","3920871","NA","4067151","4071352","754","NA","NA","4067149","4072320","3959080","4067148","3619462","NA","4067151","756","New experiment","NA","0","0","0","yes","1024"
"undefined","undefined","undefined","undefined","black","no","legacy","0","uniform","undefined","undefined","undefined","74","74","149","74","74","NA","74","74","0","0","0","74","74","0","74","0","NA","74","0","Tue 02 Jul 2019 12:15:27 PM PDT","500","1000","The main experiment item","yes","NA","ABX_v3.osexp","/home/ubuntu/Desktop/panara","yes","no","mono","no","18","no","white","no","yes","768","20","53","/home/ubuntu/Desktop/panara/subject-110.csv","Jazzy James","3.1.3","1.2.4.wav","1.2.2.wav","1.1.2.wav","0","1","r","1","NA","749","15737","749","NA","3618705","space","2","1024","2","48000","-16","experiment","1.1.2.wav","1.2.4.wav","1.2.2.wav","110","even","4073515","4076250","4075750","4074778","3920871","NA","4072515","4077042","754","NA","NA","4072513","4077792","3959080","4072513","3619462","NA","4072515","756","New experiment","NA","0","0","0","yes","1024"
"undefined","undefined","undefined","undefined","black","no","legacy","0","uniform","undefined","undefined","undefined","75","75","151","75","75","NA","75","75","0","0","0","75","75","0","75","0","NA","75","0","Tue 02 Jul 2019 12:15:27 PM PDT","500","1000","The main experiment item","yes","NA","ABX_v3.osexp","/home/ubuntu/Desktop/panara","no","no","mono","no","18","no","white","no","yes","768","21","53","/home/ubuntu/Desktop/panara/subject-110.csv","Jazzy James","3.1.3","1.2.2.wav","1.2.4.wav","2.2.4.wav","0","1","r","1","NA","533","15737","533","NA","3618705","space","2","1024","2","48000","-16","experiment","1.2.2.wav","2.2.4.wav","1.2.4.wav","110","even","4078984","4081506","4081006","4080256","3920871","NA","4077983","4082234","754","NA","NA","4077980","4082767","3959080","4077980","3619462","NA","4077984","756","New experiment","NA","0","0","0","yes","1024"
"undefined","undefined","undefined","undefined","black","no","legacy","0","uniform","undefined","undefined","undefined","76","76","153","76","76","NA","76","76","0","0","0","76","76","0","76","0","NA","76","0","Tue 02 Jul 2019 12:15:27 PM PDT","500","1000","The main experiment item","yes","NA","ABX_v3.osexp","/home/ubuntu/Desktop/panara","no","no","mono","no","18","no","white","no","yes","768","22","53","/home/ubuntu/Desktop/panara/subject-110.csv","Jazzy James","3.1.3","2.2.2.wav","4.2.2.wav","4.2.4.wav","0","0","r","0","NA","716","15737","716","NA","3618705","space","2","1024","2","48000","-16","experiment","2.2.2.wav","4.2.4.wav","4.2.2.wav","110","even","4083920","4086381","4085881","4085155","3920871","NA","4082920","4087098","754","NA","NA","4082917","4087815","3959080","4082917","3619462","NA","4082920","756","New experiment","NA","0","0","0","yes","1024"
"undefined","undefined","undefined","undefined","black","no","legacy","0","uniform","undefined","undefined","undefined","77","77","155","77","77","NA","77","77","0","0","0","77","77","0","77","0","NA","77","0","Tue 02 Jul 2019 12:15:27 PM PDT","500","1000","The main experiment item","yes","NA","ABX_v3.osexp","/home/ubuntu/Desktop/panara","yes","no","mono","no","18","no","white","no","yes","768","23","53","/home/ubuntu/Desktop/panara/subject-110.csv","Jazzy James","3.1.3","1.2.3.wav","1.2.1.wav","2.2.1.wav","0","0","r","0","NA","895","15737","895","NA","3618705","space","2","1024","2","48000","-16","experiment","2.2.1.wav","1.2.3.wav","1.2.1.wav","110","even","4088995","4091563","4091063","4090280","3920871","NA","4087995","4092278","754","NA","NA","4087993","4093174","3959080","4087993","3619462","NA","4087995","756","New experiment","NA","0","0","0","yes","1024"
"undefined","undefined","undefined","undefined","black","no","legacy","0","uniform","undefined","undefined","undefined","78","78","157","78","78","NA","78","78","0","0","0","78","78","0","78","0","NA","78","0","Tue 02 Jul 2019 12:15:27 PM PDT","500","1000","The main experiment item","yes","NA","ABX_v3.osexp","/home/ubuntu/Desktop/panara","yes","no","mono","no","18","no","white","no","yes","768","24","53","/home/ubuntu/Desktop/panara/subject-110.csv","Jazzy James","3.1.3","2.2.5.wav","1.2.5.wav","1.2.3.wav","0","0","r","0","NA","1179","15737","1179","NA","3618705","space","2","1024","2","48000","-16","experiment","1.2.3.wav","2.2.5.wav","1.2.5.wav","110","even","4094352","4096866","4096366","4095595","3920871","NA","4093351","4097635","754","NA","NA","4093349","4098814","3959080","4093349","3619462","NA","4093352","756","New experiment","NA","0","0","0","yes","1024"
"undefined","undefined","undefined","undefined","black","no","legacy","0","uniform","undefined","undefined","undefined","79","79","159","79","79","NA","79","79","0","0","0","79","79","0","79","0","NA","79","0","Tue 02 Jul 2019 12:15:27 PM PDT","500","1000","The main experiment item","yes","NA","ABX_v3.osexp","/home/ubuntu/Desktop/panara","yes","no","mono","no","18","no","white","no","yes","768","25","53","/home/ubuntu/Desktop/panara/subject-110.csv","Jazzy James","3.1.3","2.1.5.wav","1.1.5.wav","1.1.3.wav","0","1","r","1","NA","1711","15737","1711","NA","3618705","space","2","1024","2","48000","-16","experiment","1.1.3.wav","2.1.5.wav","1.1.5.wav","110","even","4099987","4102518","4102018","4101249","3920871","NA","4098986","4103301","754","NA","NA","4098984","4105013","3959080","4098983","3619462","NA","4098987","756","New experiment","NA","0","0","0","yes","1024"
"undefined","undefined","undefined","undefined","black","no","legacy","0","uniform","undefined","undefined","undefined","80","80","161","80","80","NA","80","80","0","0","0","80","80","0","80","0","NA","80","0","Tue 02 Jul 2019 12:15:27 PM PDT","500","1000","The main experiment item","yes","NA","ABX_v3.osexp","/home/ubuntu/Desktop/panara","yes","no","mono","no","18","no","white","no","yes","768","26","53","/home/ubuntu/Desktop/panara/subject-110.csv","Jazzy James","3.1.3","4.1.5.wav","4.1.3.wav","3.1.3.wav","0","0","r","0","NA","774","15737","774","NA","3618705","space","2","1024","2","48000","-16","experiment","3.1.3.wav","4.1.5.wav","4.1.3.wav","110","even","4106182","4108604","4108104","4107393","3920871","NA","4105181","4109342","754","NA","NA","4105178","4110117","3959080","4105178","3619462","NA","4105182","756","New experiment","NA","0","0","0","yes","1024"
"undefined","undefined","undefined","undefined","black","no","legacy","0","uniform","undefined","undefined","undefined","81","81","163","81","81","NA","81","81","0","0","0","81","81","0","81","0","NA","81","0","Tue 02 Jul 2019 12:15:27 PM PDT","500","1000","The main experiment item","yes","NA","ABX_v3.osexp","/home/ubuntu/Desktop/panara","yes","no","mono","no","18","no","white","no","yes","768","27","53","/home/ubuntu/Desktop/panara/subject-110.csv","Jazzy James","3.1.3","1.1.5.wav","2.1.5.wav","2.1.3.wav","0","1","r","1","NA","822","15737","822","NA","3618705","space","2","1024","2","48000","-16","experiment","2.1.3.wav","1.1.5.wav","2.1.5.wav","110","even","4111239","4113769","4113269","4112535","3920871","NA","4110239","4114527","754","NA","NA","4110236","4115349","3959080","4110236","3619462","NA","4110239","756","New experiment","NA","0","0","0","yes","1024"
"undefined","undefined","undefined","undefined","black","no","legacy","0","uniform","undefined","undefined","undefined","82","82","165","82","82","NA","82","82","0","0","0","82","82","0","82","0","NA","82","0","Tue 02 Jul 2019 12:15:27 PM PDT","500","1000","The main experiment item","yes","NA","ABX_v3.osexp","/home/ubuntu/Desktop/panara","yes","no","mono","no","18","no","white","no","yes","768","28","53","/home/ubuntu/Desktop/panara/subject-110.csv","Jazzy James","3.1.3","2.1.4.wav","2.2.4.wav","2.2.2.wav","0","0","r","0","NA","753","15737","753","NA","3618705","space","2","1024","2","48000","-16","experiment","2.2.2.wav","2.1.4.wav","2.2.4.wav","110","even","4116504","4118996","4118496","4117742","3920871","NA","4115504","4119715","754","NA","NA","4115502","4120469","3959080","4115502","3619462","NA","4115504","756","New experiment","NA","0","0","0","yes","1024"
"undefined","undefined","undefined","undefined","black","no","legacy","0","uniform","undefined","undefined","undefined","83","83","167","83","83","NA","83","83","0","0","0","83","83","0","83","0","NA","83","0","Tue 02 Jul 2019 12:15:27 PM PDT","500","1000","The main experiment item","yes","NA","ABX_v3.osexp","/home/ubuntu/Desktop/panara","yes","no","mono","no","18","no","white","no","yes","768","29","53","/home/ubuntu/Desktop/panara/subject-110.csv","Jazzy James","3.1.3","1.1.5.wav","1.2.5.wav","1.2.3.wav","0","1","r","1","NA","1437","15737","1437","NA","3618705","space","2","1024","2","48000","-16","experiment","1.2.3.wav","1.1.5.wav","1.2.5.wav","110","even","4121648","4124196","4123696","4122925","3920871","NA","4120648","4124983","754","NA","NA","4120646","4126421","3959080","4120646","3619462","NA","4120648","756","New experiment","NA","0","0","0","yes","1024"
"undefined","undefined","undefined","undefined","black","no","legacy","0","uniform","undefined","undefined","undefined","84","84","169","84","84","NA","84","84","0","0","0","84","84","0","84","0","NA","84","0","Tue 02 Jul 2019 12:15:27 PM PDT","500","1000","The main experiment item","yes","NA","ABX_v3.osexp","/home/ubuntu/Desktop/panara","yes","no","mono","no","18","no","white","no","yes","768","30","53","/home/ubuntu/Desktop/panara/subject-110.csv","Jazzy James","3.1.3","2.2.5.wav","2.2.3.wav","2.1.3.wav","0","1","r","1","NA","1638","15737","1638","NA","3618705","space","2","1024","2","48000","-16","experiment","2.1.3.wav","2.2.5.wav","2.2.3.wav","110","even","4127582","4130068","4129568","4128842","3920871","NA","4126582","4130806","754","NA","NA","4126580","4132444","3959080","4126580","3619462","NA","4126582","756","New experiment","NA","0","0","0","yes","1024"
"undefined","undefined","undefined","undefined","black","no","legacy","0","uniform","undefined","undefined","undefined","85","85","171","85","85","NA","85","85","0","0","0","85","85","0","85","0","NA","85","0","Tue 02 Jul 2019 12:15:27 PM PDT","500","1000","The main experiment item","yes","NA","ABX_v3.osexp","/home/ubuntu/Desktop/panara","yes","no","mono","no","18","no","white","no","yes","768","31","53","/home/ubuntu/Desktop/panara/subject-110.csv","Jazzy James","3.1.3","3.2.3.wav","1.2.3.wav","1.2.1.wav","0","0","r","0","NA","577","15737","577","NA","3618705","space","2","1024","2","48000","-16","experiment","1.2.1.wav","3.2.3.wav","1.2.3.wav","110","even","4133596","4136104","4135604","4134819","3920871","NA","4132596","4136890","754","NA","NA","4132593","4137468","3959080","4132593","3619462","NA","4132596","756","New experiment","NA","0","0","0","yes","1024"
"undefined","undefined","undefined","undefined","black","no","legacy","0","uniform","undefined","undefined","undefined","86","86","173","86","86","NA","86","86","0","0","0","86","86","0","86","0","NA","86","0","Tue 02 Jul 2019 12:15:27 PM PDT","500","1000","The main experiment item","yes","NA","ABX_v3.osexp","/home/ubuntu/Desktop/panara","yes","no","mono","no","18","no","white","no","yes","768","32","53","/home/ubuntu/Desktop/panara/subject-110.csv","Jazzy James","3.1.3","3.1.4.wav","4.1.4.wav","4.1.2.wav","0","1","r","1","NA","1105","15737","1105","NA","3618705","space","2","1024","2","48000","-16","experiment","4.1.2.wav","3.1.4.wav","4.1.4.wav","110","even","4138623","4141148","4140648","4139897","3920871","NA","4137623","4141874","754","NA","NA","4137621","4142980","3959080","4137621","3619462","NA","4137623","756","New experiment","NA","0","0","0","yes","1024"
"undefined","undefined","undefined","undefined","black","no","legacy","0","uniform","undefined","undefined","undefined","87","87","175","87","87","NA","87","87","0","0","0","87","87","0","87","0","NA","87","0","Tue 02 Jul 2019 12:15:27 PM PDT","500","1000","The main experiment item","yes","NA","ABX_v3.osexp","/home/ubuntu/Desktop/panara","no","no","mono","no","18","no","white","no","yes","768","33","53","/home/ubuntu/Desktop/panara/subject-110.csv","Jazzy James","3.1.3","1.2.3.wav","3.2.3.wav","3.2.5.wav","0","0","r","0","NA","667","15737","667","NA","3618705","space","2","1024","2","48000","-16","experiment","1.2.3.wav","3.2.5.wav","3.2.3.wav","110","even","4144157","4146680","4146180","4145430","3920871","NA","4143156","4147462","754","NA","NA","4143153","4148130","3959080","4143153","3619462","NA","4143157","756","New experiment","NA","0","0","0","yes","1024"
"undefined","undefined","undefined","undefined","black","no","legacy","0","uniform","undefined","undefined","undefined","88","88","177","88","88","NA","88","88","0","0","0","88","88","0","88","0","NA","88","0","Tue 02 Jul 2019 12:15:27 PM PDT","500","1000","The main experiment item","yes","NA","ABX_v3.osexp","/home/ubuntu/Desktop/panara","no","no","mono","no","18","no","white","no","yes","768","34","53","/home/ubuntu/Desktop/panara/subject-110.csv","Jazzy James","3.1.3","3.2.3.wav","3.2.5.wav","3.1.5.wav","0","1","r","1","NA","3168","15737","3168","NA","3618705","space","2","1024","2","48000","-16","experiment","3.2.3.wav","3.1.5.wav","3.2.5.wav","110","even","4149295","4151829","4151329","4150548","3920871","NA","4148295","4152610","754","NA","NA","4148293","4155779","3959080","4148293","3619462","NA","4148295","756","New experiment","NA","0","0","0","yes","1024"
"undefined","undefined","undefined","undefined","black","no","legacy","0","uniform","undefined","undefined","undefined","89","89","179","89","89","NA","89","89","0","0","0","89","89","0","89","0","NA","89","0","Tue 02 Jul 2019 12:15:27 PM PDT","500","1000","The main experiment item","yes","NA","ABX_v3.osexp","/home/ubuntu/Desktop/panara","no","no","mono","no","18","no","white","no","yes","768","35","53","/home/ubuntu/Desktop/panara/subject-110.csv","Jazzy James","3.1.3","3.2.1.wav","4.2.1.wav","4.2.3.wav","0","1","r","1","NA","541","15737","541","NA","3618705","space","2","1024","2","48000","-16","experiment","3.2.1.wav","4.2.3.wav","4.2.1.wav","110","even","4156919","4159387","4158887","4158173","3920871","NA","4155919","4160133","754","NA","NA","4155916","4160674","3959080","4155916","3619462","NA","4155919","756","New experiment","NA","0","0","0","yes","1024"
"undefined","undefined","undefined","undefined","black","no","legacy","0","uniform","undefined","undefined","undefined","90","90","181","90","90","NA","90","90","0","0","0","90","90","0","90","0","NA","90","0","Tue 02 Jul 2019 12:15:27 PM PDT","500","1000","The main experiment item","yes","NA","ABX_v3.osexp","/home/ubuntu/Desktop/panara","no","no","mono","no","18","no","white","no","yes","768","36","53","/home/ubuntu/Desktop/panara/subject-110.csv","Jazzy James","3.1.3","1.2.2.wav","1.2.4.wav","1.1.4.wav","0","1","r","1","NA","1336","15737","1336","NA","3618705","space","2","1024","2","48000","-16","experiment","1.2.2.wav","1.1.4.wav","1.2.4.wav","110","even","4161825","4164373","4163873","4163121","3920871","NA","4160825","4165153","754","NA","NA","4160823","4166490","3959080","4160823","3619462","NA","4160825","756","New experiment","NA","0","0","0","yes","1024"
"undefined","undefined","undefined","undefined","black","no","legacy","0","uniform","undefined","undefined","undefined","91","91","183","91","91","NA","91","91","0","0","0","91","91","0","91","0","NA","91","0","Tue 02 Jul 2019 12:15:27 PM PDT","500","1000","The main experiment item","yes","NA","ABX_v3.osexp","/home/ubuntu/Desktop/panara","yes","no","mono","no","18","no","white","no","yes","768","37","53","/home/ubuntu/Desktop/panara/subject-110.csv","Jazzy James","3.1.3","4.2.5.wav","4.2.3.wav","4.1.3.wav","0","0","r","0","NA","2634","15737","2634","NA","3618705","space","2","1024","2","48000","-16","experiment","4.1.3.wav","4.2.5.wav","4.2.3.wav","110","even","4167611","4170103","4169602","4168851","3920871","NA","4166611","4170815","754","NA","NA","4166608","4173450","3959080","4166608","3619462","NA","4166611","756","New experiment","NA","0","0","0","yes","1024"
"undefined","undefined","undefined","undefined","black","no","legacy","0","uniform","undefined","undefined","undefined","92","92","185","92","92","NA","92","92","0","0","0","92","92","0","92","0","NA","92","0","Tue 02 Jul 2019 12:15:27 PM PDT","500","1000","The main experiment item","yes","NA","ABX_v3.osexp","/home/ubuntu/Desktop/panara","no","no","mono","no","18","no","white","no","yes","768","38","53","/home/ubuntu/Desktop/panara/subject-110.csv","Jazzy James","3.1.3","4.1.1.wav","4.1.3.wav","4.2.3.wav","0","0","r","0","NA","1404","15737","1404","NA","3618705","space","2","1024","2","48000","-16","experiment","4.1.1.wav","4.2.3.wav","4.1.3.wav","110","even","4174587","4177051","4176551","4175798","3920871","NA","4173587","4177804","754","NA","NA","4173584","4179209","3959080","4173584","3619462","NA","4173587","756","New experiment","NA","0","0","0","yes","1024"
"undefined","undefined","undefined","undefined","black","no","legacy","0","uniform","undefined","undefined","undefined","93","93","187","93","93","NA","93","93","0","0","0","93","93","0","93","0","NA","93","0","Tue 02 Jul 2019 12:15:27 PM PDT","500","1000","The main experiment item","yes","NA","ABX_v3.osexp","/home/ubuntu/Desktop/panara","no","no","mono","no","18","no","white","no","yes","768","39","53","/home/ubuntu/Desktop/panara/subject-110.csv","Jazzy James","3.1.3","3.1.2.wav","1.1.2.wav","1.1.4.wav","0","0","r","0","NA","711","15737","711","NA","3618705","space","2","1024","2","48000","-16","experiment","3.1.2.wav","1.1.4.wav","1.1.2.wav","110","even","4180363","4182937","4182437","4181641","3920871","NA","4179363","4183705","754","NA","NA","4179360","4184417","3959080","4179360","3619462","NA","4179363","756","New experiment","NA","0","0","0","yes","1024"
"undefined","undefined","undefined","undefined","black","no","legacy","0","uniform","undefined","undefined","undefined","94","94","189","94","94","NA","94","94","0","0","0","94","94","0","94","0","NA","94","0","Tue 02 Jul 2019 12:15:27 PM PDT","500","1000","The main experiment item","yes","NA","ABX_v3.osexp","/home/ubuntu/Desktop/panara","no","no","mono","no","18","no","white","no","yes","768","40","53","/home/ubuntu/Desktop/panara/subject-110.csv","Jazzy James","3.1.3","2.2.3.wav","2.2.5.wav","1.2.5.wav","0","0","r","0","NA","772","15737","772","NA","3618705","space","2","1024","2","48000","-16","experiment","2.2.3.wav","1.2.5.wav","2.2.5.wav","110","even","4185574","4188037","4187537","4186785","3920871","NA","4184574","4188812","754","NA","NA","4184571","4189585","3959080","4184571","3619462","NA","4184574","756","New experiment","NA","0","0","0","yes","1024"
"undefined","undefined","undefined","undefined","black","no","legacy","0","uniform","undefined","undefined","undefined","95","95","191","95","95","NA","95","95","0","0","0","95","95","0","95","0","NA","95","0","Tue 02 Jul 2019 12:15:27 PM PDT","500","1000","The main experiment item","yes","NA","ABX_v3.osexp","/home/ubuntu/Desktop/panara","no","no","mono","no","18","no","white","no","yes","768","41","53","/home/ubuntu/Desktop/panara/subject-110.csv","Jazzy James","3.1.3","1.2.1.wav","2.2.1.wav","2.2.3.wav","0","0","r","0","NA","2605","15737","2605","NA","3618705","space","2","1024","2","48000","-16","experiment","1.2.1.wav","2.2.3.wav","2.2.1.wav","110","even","4190739","4193248","4192748","4192025","3920871","NA","4189739","4194002","754","NA","NA","4189737","4196608","3959080","4189737","3619462","NA","4189739","756","New experiment","NA","0","0","0","yes","1024"
"undefined","undefined","undefined","undefined","black","no","legacy","0","uniform","undefined","undefined","undefined","96","96","193","96","96","NA","96","96","0","0","0","96","96","0","96","0","NA","96","0","Tue 02 Jul 2019 12:15:27 PM PDT","500","1000","The main experiment item","yes","NA","ABX_v3.osexp","/home/ubuntu/Desktop/panara","no","no","mono","no","18","no","white","no","yes","768","42","53","/home/ubuntu/Desktop/panara/subject-110.csv","Jazzy James","3.1.3","3.2.1.wav","3.2.3.wav","1.2.3.wav","0","1","r","1","NA","1650","15737","1650","NA","3618705","space","2","1024","2","48000","-16","experiment","3.2.1.wav","1.2.3.wav","3.2.3.wav","110","even","4197784","4200287","4199787","4199045","3920871","NA","4196784","4201069","754","NA","NA","4196781","4202720","3959080","4196781","3619462","NA","4196784","756","New experiment","NA","0","0","0","yes","1024"
"undefined","undefined","undefined","undefined","black","no","legacy","0","uniform","undefined","undefined","undefined","97","97","195","97","97","NA","97","97","0","0","0","97","97","0","97","0","NA","97","0","Tue 02 Jul 2019 12:15:27 PM PDT","500","1000","The main experiment item","yes","NA","ABX_v3.osexp","/home/ubuntu/Desktop/panara","no","no","mono","no","18","no","white","no","yes","768","43","53","/home/ubuntu/Desktop/panara/subject-110.csv","Jazzy James","3.1.3","3.1.1.wav","1.1.1.wav","1.1.3.wav","0","0","r","0","NA","983","15737","983","NA","3618705","space","2","1024","2","48000","-16","experiment","3.1.1.wav","1.1.3.wav","1.1.1.wav","110","even","4203896","4206460","4205960","4205151","3920871","NA","4202896","4207272","754","NA","NA","4202894","4208255","3959080","4202894","3619462","NA","4202896","756","New experiment","NA","0","0","0","yes","1024"
"undefined","undefined","undefined","undefined","black","no","legacy","0","uniform","undefined","undefined","undefined","98","98","197","98","98","NA","98","98","0","0","0","98","98","0","98","0","NA","98","0","Tue 02 Jul 2019 12:15:27 PM PDT","500","1000","The main experiment item","yes","NA","ABX_v3.osexp","/home/ubuntu/Desktop/panara","no","no","mono","no","18","no","white","no","yes","768","44","53","/home/ubuntu/Desktop/panara/subject-110.csv","Jazzy James","3.1.3","1.2.2.wav","2.2.2.wav","2.2.4.wav","0","0","r","0","NA","2081","15737","2081","NA","3618705","space","2","1024","2","48000","-16","experiment","1.2.2.wav","2.2.4.wav","2.2.2.wav","110","even","4209424","4211928","4211428","4210712","3920871","NA","4208424","4212653","754","NA","NA","4208422","4214735","3959080","4208422","3619462","NA","4208424","756","New experiment","NA","0","0","0","yes","1024"
"undefined","undefined","undefined","undefined","black","no","legacy","0","uniform","undefined","undefined","undefined","99","99","199","99","99","NA","99","99","0","0","0","99","99","0","99","0","NA","99","0","Tue 02 Jul 2019 12:15:27 PM PDT","500","1000","The main experiment item","yes","NA","ABX_v3.osexp","/home/ubuntu/Desktop/panara","yes","no","mono","no","18","no","white","no","yes","768","45","53","/home/ubuntu/Desktop/panara/subject-110.csv","Jazzy James","3.1.3","2.1.4.wav","4.1.4.wav","4.1.2.wav","0","1","r","1","NA","986","15737","986","NA","3618705","space","2","1024","2","48000","-16","experiment","4.1.2.wav","2.1.4.wav","4.1.4.wav","110","even","4215909","4218377","4217877","4217155","3920871","NA","4214909","4219131","754","NA","NA","4214906","4220118","3959080","4214906","3619462","NA","4214909","756","New experiment","NA","0","0","0","yes","1024"
"undefined","undefined","undefined","undefined","black","no","legacy","0","uniform","undefined","undefined","undefined","100","100","201","100","100","NA","100","100","0","0","0","100","100","0","100","0","NA","100","0","Tue 02 Jul 2019 12:15:27 PM PDT","500","1000","The main experiment item","yes","NA","ABX_v3.osexp","/home/ubuntu/Desktop/panara","no","no","mono","no","18","no","white","no","yes","768","46","53","/home/ubuntu/Desktop/panara/subject-110.csv","Jazzy James","3.1.3","4.1.1.wav","4.2.1.wav","4.2.3.wav","0","0","e","0","NA","866","14147","866","NA","3618705","space","2","1024","2","48000","-16","experiment","4.1.1.wav","4.2.3.wav","4.2.1.wav","110","even","4235401","4237889","4237389","4236637","4220250","NA","4234400","4238643","754","NA","NA","4220247","4239509","3959080","4220247","3619462","NA","4234400","756","New experiment","NA","0","0","0","yes","1024"
"undefined","undefined","undefined","undefined","black","no","legacy","0","uniform","undefined","undefined","undefined","101","101","203","101","101","NA","101","101","0","0","0","101","101","0","101","0","NA","101","0","Tue 02 Jul 2019 12:15:27 PM PDT","500","1000","The main experiment item","yes","NA","ABX_v3.osexp","/home/ubuntu/Desktop/panara","yes","no","mono","no","18","no","white","no","yes","768","47","53","/home/ubuntu/Desktop/panara/subject-110.csv","Jazzy James","3.1.3","1.2.3.wav","1.2.1.wav","3.2.1.wav","0","1","e","1","NA","967","14147","967","NA","3618705","space","2","1024","2","48000","-16","experiment","3.2.1.wav","1.2.3.wav","1.2.1.wav","110","even","4240667","4243236","4242736","4241956","4220250","NA","4239667","4243989","754","NA","NA","4239665","4244957","3959080","4239665","3619462","NA","4239667","756","New experiment","NA","0","0","0","yes","1024"
"undefined","undefined","undefined","undefined","black","no","legacy","0","uniform","undefined","undefined","undefined","102","102","205","102","102","NA","102","102","0","0","0","102","102","0","102","0","NA","102","0","Tue 02 Jul 2019 12:15:27 PM PDT","500","1000","The main experiment item","yes","NA","ABX_v3.osexp","/home/ubuntu/Desktop/panara","no","no","mono","no","18","no","white","no","yes","768","48","53","/home/ubuntu/Desktop/panara/subject-110.csv","Jazzy James","3.1.3","1.2.2.wav","1.2.4.wav","3.2.4.wav","0","1","e","1","NA","548","14147","548","NA","3618705","space","2","1024","2","48000","-16","experiment","1.2.2.wav","3.2.4.wav","1.2.4.wav","110","even","4246116","4248660","4248160","4247410","4220250","NA","4245116","4249416","754","NA","NA","4245113","4249965","3959080","4245113","3619462","NA","4245116","756","New experiment","NA","0","0","0","yes","1024"
"undefined","undefined","undefined","undefined","black","no","legacy","0","uniform","undefined","undefined","undefined","103","103","207","103","103","NA","103","103","0","0","0","103","103","0","103","0","NA","103","0","Tue 02 Jul 2019 12:15:27 PM PDT","500","1000","The main experiment item","yes","NA","ABX_v3.osexp","/home/ubuntu/Desktop/panara","yes","no","mono","no","18","no","white","no","yes","768","49","53","/home/ubuntu/Desktop/panara/subject-110.csv","Jazzy James","3.1.3","1.1.5.wav","1.1.3.wav","2.1.3.wav","0","1","e","1","NA","1050","14147","1050","NA","3618705","space","2","1024","2","48000","-16","experiment","2.1.3.wav","1.1.5.wav","1.1.3.wav","110","even","4251139","4253697","4253197","4252416","4220250","NA","4250139","4254442","754","NA","NA","4250137","4255492","3959080","4250136","3619462","NA","4250139","756","New experiment","NA","0","0","0","yes","1024"
"undefined","undefined","undefined","undefined","black","no","legacy","0","uniform","undefined","undefined","undefined","104","104","209","104","104","NA","104","104","0","0","0","104","104","0","104","0","NA","104","0","Tue 02 Jul 2019 12:15:27 PM PDT","500","1000","The main experiment item","yes","NA","ABX_v3.osexp","/home/ubuntu/Desktop/panara","yes","no","mono","no","18","no","white","no","yes","768","50","53","/home/ubuntu/Desktop/panara/subject-110.csv","Jazzy James","3.1.3","1.2.4.wav","1.2.2.wav","2.2.2.wav","0","0","e","0","NA","1709","14147","1709","NA","3618705","space","2","1024","2","48000","-16","experiment","2.2.2.wav","1.2.4.wav","1.2.2.wav","110","even","4256650","4259171","4258671","4257891","4220250","NA","4255650","4259910","754","NA","NA","4255647","4261620","3959080","4255647","3619462","NA","4255650","756","New experiment","NA","0","0","0","yes","1024"
"undefined","undefined","undefined","undefined","black","no","legacy","0","uniform","undefined","undefined","undefined","105","105","211","105","105","NA","105","105","0","0","0","105","105","0","105","0","NA","105","0","Tue 02 Jul 2019 12:15:27 PM PDT","500","1000","The main experiment item","yes","NA","ABX_v3.osexp","/home/ubuntu/Desktop/panara","no","no","mono","no","18","no","white","no","yes","768","51","53","/home/ubuntu/Desktop/panara/subject-110.csv","Jazzy James","3.1.3","3.2.1.wav","3.1.1.wav","3.1.3.wav","0","0","e","0","NA","953","14147","953","NA","3618705","space","2","1024","2","48000","-16","experiment","3.2.1.wav","3.1.3.wav","3.1.1.wav","110","even","4262773","4265274","4264774","4264014","4220250","NA","4261772","4266018","754","NA","NA","4261770","4266972","3959080","4261770","3619462","NA","4261773","756","New experiment","NA","0","0","0","yes","1024"
"undefined","undefined","undefined","undefined","black","no","legacy","0","uniform","undefined","undefined","undefined","106","106","213","106","106","NA","106","106","0","0","0","106","106","0","106","0","NA","106","0","Tue 02 Jul 2019 12:15:27 PM PDT","500","1000","The main experiment item","yes","NA","ABX_v3.osexp","/home/ubuntu/Desktop/panara","no","no","mono","no","18","no","white","no","yes","768","52","53","/home/ubuntu/Desktop/panara/subject-110.csv","Jazzy James","3.1.3","4.2.1.wav","2.2.1.wav","2.2.3.wav","0","0","e","0","NA","968","14147","968","NA","3618705","space","2","1024","2","48000","-16","experiment","4.2.1.wav","2.2.3.wav","2.2.1.wav","110","even","4268091","4270575","4270075","4269355","4220250","NA","4267090","4271331","754","NA","NA","4267088","4272299","3959080","4267087","3619462","NA","4267091","756","New experiment","NA","0","0","0","yes","1024"
"undefined","undefined","undefined","undefined","black","no","legacy","0","uniform","undefined","undefined","undefined","107","107","215","107","107","NA","107","107","0","0","0","107","107","0","107","0","NA","107","0","Tue 02 Jul 2019 12:15:27 PM PDT","500","1000","The main experiment item","yes","NA","ABX_v3.osexp","/home/ubuntu/Desktop/panara","no","no","mono","no","18","no","white","no","yes","768","53","53","/home/ubuntu/Desktop/panara/subject-110.csv","Jazzy James","3.1.3","2.1.1.wav","4.1.1.wav","4.1.3.wav","0","0","e","0","NA","746","14147","746","NA","3618705","space","2","1024","2","48000","-16","experiment","2.1.1.wav","4.1.3.wav","4.1.1.wav","110","even","4273483","4275967","4275467","4274744","4220250","NA","4272483","4276688","754","NA","NA","4272480","4277435","3959080","4272480","3619462","NA","4272483","756","New experiment","NA","0","0","0","yes","1024"
"undefined","undefined","undefined","undefined","black","no","legacy","0","uniform","undefined","undefined","undefined","108","108","217","108","108","NA","108","108","0","0","0","108","108","0","108","0","NA","108","0","Tue 02 Jul 2019 12:15:27 PM PDT","500","1000","The main experiment item","yes","NA","ABX_v3.osexp","/home/ubuntu/Desktop/panara","yes","no","mono","no","18","no","white","no","yes","768","54","53","/home/ubuntu/Desktop/panara/subject-110.csv","Jazzy James","3.1.3","1.1.3.wav","1.1.1.wav","1.2.1.wav","0","1","e","1","NA","1218","14147","1218","NA","3618705","space","2","1024","2","48000","-16","experiment","1.2.1.wav","1.1.3.wav","1.1.1.wav","110","even","4278614","4281193","4280693","4279913","4220250","NA","4277614","4281976","754","NA","NA","4277611","4283195","3959080","4277611","3619462","NA","4277614","756","New experiment","NA","0","0","0","yes","1024"
"undefined","undefined","undefined","undefined","black","no","legacy","0","uniform","undefined","undefined","undefined","109","109","219","109","109","NA","109","109","0","0","0","109","109","0","109","0","NA","109","0","Tue 02 Jul 2019 12:15:27 PM PDT","500","1000","The main experiment item","yes","NA","ABX_v3.osexp","/home/ubuntu/Desktop/panara","yes","no","mono","no","18","no","white","no","yes","768","55","53","/home/ubuntu/Desktop/panara/subject-110.csv","Jazzy James","3.1.3","4.1.4.wav","4.1.2.wav","4.2.2.wav","0","0","e","0","NA","556","14147","556","NA","3618705","space","2","1024","2","48000","-16","experiment","4.2.2.wav","4.1.4.wav","4.1.2.wav","110","even","4284348","4286825","4286325","4285571","4220250","NA","4283348","4287549","754","NA","NA","4283345","4288105","3959080","4283345","3619462","NA","4283348","756","New experiment","NA","0","0","0","yes","1024"
"undefined","undefined","undefined","undefined","black","no","legacy","0","uniform","undefined","undefined","undefined","110","110","221","110","110","NA","110","110","0","0","0","110","110","0","110","0","NA","110","0","Tue 02 Jul 2019 12:15:27 PM PDT","500","1000","The main experiment item","yes","NA","ABX_v3.osexp","/home/ubuntu/Desktop/panara","yes","no","mono","no","18","no","white","no","yes","768","56","53","/home/ubuntu/Desktop/panara/subject-110.csv","Jazzy James","3.1.3","4.2.4.wav","4.2.2.wav","4.1.2.wav","0","0","e","0","NA","482","14147","482","NA","3618705","space","2","1024","2","48000","-16","experiment","4.1.2.wav","4.2.4.wav","4.2.2.wav","110","even","4289283","4291731","4291231","4290514","4220250","NA","4288283","4292463","754","NA","NA","4288280","4292946","3959080","4288280","3619462","NA","4288283","756","New experiment","NA","0","0","0","yes","1024"
"undefined","undefined","undefined","undefined","black","no","legacy","0","uniform","undefined","undefined","undefined","111","111","223","111","111","NA","111","111","0","0","0","111","111","0","111","0","NA","111","0","Tue 02 Jul 2019 12:15:27 PM PDT","500","1000","The main experiment item","yes","NA","ABX_v3.osexp","/home/ubuntu/Desktop/panara","no","no","mono","no","18","no","white","no","yes","768","57","53","/home/ubuntu/Desktop/panara/subject-110.csv","Jazzy James","3.1.3","2.1.2.wav","1.1.2.wav","1.1.4.wav","0","0","e","0","NA","516","14147","516","NA","3618705","space","2","1024","2","48000","-16","experiment","2.1.2.wav","1.1.4.wav","1.1.2.wav","110","even","4294128","4296702","4296202","4295393","4220250","NA","4293128","4297484","754","NA","NA","4293125","4298001","3959080","4293125","3619462","NA","4293128","756","New experiment","NA","0","0","0","yes","1024"
