"acc","accuracy","average_response_time","avg_rt","background","bidi","canvas_backend","compensation","coordinates","correct","correct_display_selecting","correct_welcome","count_A","count_B","count_ISI","count_X","count_break","count_determine_break","count_display_listening","count_display_selecting","count_experiment","count_finished","count_getting_started","count_new_inline_script","count_new_logger","count_new_loop","count_new_sequence","count_plain_block","count_setup_breaks","count_wait_nextitem","count_welcome","datetime","delay_ISI","delay_wait_nextitem","description","disable_garbage_collection","empty_column","experiment_file","experiment_path","flip_order","font_bold","font_family","font_italic","font_size","font_underline","foreground","form_clicks","fullscreen","height","live_row","live_row_plain_block","logfile","opensesame_codename","opensesame_version","play1","play2","play3","repeat_cycle","response","response_break","response_display_selecting","response_finished","response_time","response_time_break","response_time_display_selecting","response_time_finished","response_time_welcome","response_welcome","round_decimals","sound_buf_size","sound_channels","sound_freq","sound_sample_size","start","stimA","stimB","stimX","subject_nr","subject_parity","time_A","time_B","time_ISI","time_X","time_break","time_determine_break","time_display_listening","time_display_selecting","time_experiment","time_finished","time_getting_started","time_new_inline_script","time_new_logger","time_new_loop","time_new_sequence","time_plain_block","time_setup_breaks","time_wait_nextitem","time_welcome","title","to_break","total_correct","total_response_time","total_responses","uniform_coordinates","width"
"undefined","undefined","undefined","undefined","black","no","legacy","0","uniform","undefined","undefined","undefined","0","0","1","0","0","NA","0","0","0","0","0","0","0","0","0","0","NA","0","0","Fri 26 Jul 2019 12:23:59 PM PDT","500","1000","The main experiment item","yes","NA","ABX_v3.osexp","/home/ubuntu/Desktop/panara","yes","no","mono","no","18","no","white","no","yes","768","0","0","/home/ubuntu/Desktop/panara/subject-115.csv","Jazzy James","3.1.3","5.2.4.wav","5.2.4.wav","5.2.2.wav","0","1","NA","1","NA","2452","NA","2452","NA","7813","space","2","1024","2","48000","-16","experiment","5.2.2.wav","5.2.4.wav","5.2.4.wav","115","odd","9662","12172","11672","10928","NA","NA","8662","12899","729","NA","NA","8660","15352","NA","8659","8545","NA","8662","732","New experiment","NA","0","0","0","yes","1024"
"undefined","undefined","undefined","undefined","black","no","legacy","0","uniform","undefined","undefined","undefined","1","1","3","1","1","NA","1","1","0","0","0","1","1","0","1","0","NA","1","0","Fri 26 Jul 2019 12:23:59 PM PDT","500","1000","The main experiment item","yes","NA","ABX_v3.osexp","/home/ubuntu/Desktop/panara","yes","no","mono","no","18","no","white","no","yes","768","1","1","/home/ubuntu/Desktop/panara/subject-115.csv","Jazzy James","3.1.3","4.2.4.wav","4.2.4.wav","4.2.2.wav","0","1","NA","1","NA","1400","NA","1400","NA","7813","space","2","1024","2","48000","-16","experiment","4.2.2.wav","4.2.4.wav","4.2.4.wav","115","odd","16631","19094","18594","17866","NA","NA","15631","19839","729","NA","NA","15628","21239","NA","15628","8545","NA","15631","732","New experiment","NA","0","0","0","yes","1024"
"undefined","undefined","undefined","undefined","black","no","legacy","0","uniform","undefined","undefined","undefined","2","2","5","2","2","NA","2","2","0","0","0","2","2","0","2","0","NA","2","0","Fri 26 Jul 2019 12:23:59 PM PDT","500","1000","The main experiment item","yes","NA","ABX_v3.osexp","/home/ubuntu/Desktop/panara","no","no","mono","no","18","no","white","no","yes","768","2","2","/home/ubuntu/Desktop/panara/subject-115.csv","Jazzy James","3.1.3","2.2.2.wav","2.2.2.wav","2.2.4.wav","0","1","NA","1","NA","1257","NA","1257","NA","7813","space","2","1024","2","48000","-16","experiment","2.2.2.wav","2.2.4.wav","2.2.2.wav","115","odd","22400","24862","24362","23638","NA","NA","21400","25589","729","NA","NA","21398","26847","NA","21398","8545","NA","21400","732","New experiment","NA","0","0","0","yes","1024"
"undefined","undefined","undefined","undefined","black","no","legacy","0","uniform","undefined","undefined","undefined","3","3","7","3","3","NA","3","3","0","0","0","3","3","0","3","0","NA","3","0","Fri 26 Jul 2019 12:23:59 PM PDT","500","1000","The main experiment item","yes","NA","ABX_v3.osexp","/home/ubuntu/Desktop/panara","yes","no","mono","no","18","no","white","no","yes","768","3","3","/home/ubuntu/Desktop/panara/subject-115.csv","Jazzy James","3.1.3","3.1.4.wav","3.1.4.wav","3.1.2.wav","0","0","NA","0","NA","1366","NA","1366","NA","7813","space","2","1024","2","48000","-16","experiment","3.1.2.wav","3.1.4.wav","3.1.4.wav","115","odd","28070","30622","30122","29358","NA","NA","27069","31392","729","NA","NA","27066","32758","NA","27066","8545","NA","27069","732","New experiment","NA","0","0","0","yes","1024"
"undefined","undefined","undefined","undefined","black","no","legacy","0","uniform","undefined","undefined","undefined","4","4","9","4","4","NA","4","4","0","0","0","4","4","0","4","0","NA","4","0","Fri 26 Jul 2019 12:23:59 PM PDT","500","1000","The main experiment item","yes","NA","ABX_v3.osexp","/home/ubuntu/Desktop/panara","no","no","mono","no","18","no","white","no","yes","768","4","4","/home/ubuntu/Desktop/panara/subject-115.csv","Jazzy James","3.1.3","1.2.3.wav","1.2.3.wav","1.2.5.wav","0","1","NA","1","NA","1221","NA","1221","NA","7813","space","2","1024","2","48000","-16","experiment","1.2.3.wav","1.2.5.wav","1.2.3.wav","115","odd","33976","36511","36011","35263","NA","NA","32975","37281","729","NA","NA","32972","38502","NA","32972","8545","NA","32975","732","New experiment","NA","0","0","0","yes","1024"
"undefined","undefined","undefined","undefined","black","no","legacy","0","uniform","undefined","undefined","undefined","5","5","11","5","5","NA","5","5","0","0","0","5","5","0","5","0","NA","5","0","Fri 26 Jul 2019 12:23:59 PM PDT","500","1000","The main experiment item","yes","NA","ABX_v3.osexp","/home/ubuntu/Desktop/panara","yes","no","mono","no","18","no","white","no","yes","768","5","5","/home/ubuntu/Desktop/panara/subject-115.csv","Jazzy James","3.1.3","4.2.5.wav","4.2.5.wav","4.2.3.wav","0","1","NA","1","NA","1194","NA","1194","NA","7813","space","2","1024","2","48000","-16","experiment","4.2.3.wav","4.2.5.wav","4.2.5.wav","115","odd","39687","42172","41672","40946","NA","NA","38687","42923","729","NA","NA","38684","44118","NA","38684","8545","NA","38687","732","New experiment","NA","0","0","0","yes","1024"
"undefined","undefined","undefined","undefined","black","no","legacy","0","uniform","undefined","undefined","undefined","6","6","13","6","6","NA","6","6","0","0","0","6","6","0","6","0","NA","6","0","Fri 26 Jul 2019 12:23:59 PM PDT","500","1000","The main experiment item","yes","NA","ABX_v3.osexp","/home/ubuntu/Desktop/panara","no","no","mono","no","18","no","white","no","yes","768","6","6","/home/ubuntu/Desktop/panara/subject-115.csv","Jazzy James","3.1.3","1.2.1.wav","1.2.1.wav","1.2.3.wav","0","1","NA","1","NA","1606","NA","1606","NA","7813","space","2","1024","2","48000","-16","experiment","1.2.1.wav","1.2.3.wav","1.2.1.wav","115","odd","45287","47834","47333","46561","NA","NA","44286","48615","729","NA","NA","44284","50222","NA","44284","8545","NA","44287","732","New experiment","NA","0","0","0","yes","1024"
"undefined","undefined","undefined","undefined","black","no","legacy","0","uniform","undefined","undefined","undefined","7","7","15","7","7","NA","7","7","0","0","0","7","7","0","7","0","NA","7","0","Fri 26 Jul 2019 12:23:59 PM PDT","500","1000","The main experiment item","yes","NA","ABX_v3.osexp","/home/ubuntu/Desktop/panara","yes","no","mono","no","18","no","white","no","yes","768","7","7","/home/ubuntu/Desktop/panara/subject-115.csv","Jazzy James","3.1.3","5.2.5.wav","5.2.5.wav","5.2.3.wav","0","1","NA","1","NA","1082","NA","1082","NA","7813","space","2","1024","2","48000","-16","experiment","5.2.3.wav","5.2.5.wav","5.2.5.wav","115","odd","51409","53870","53370","52634","NA","NA","50409","54611","729","NA","NA","50406","55693","NA","50406","8545","NA","50409","732","New experiment","NA","0","0","0","yes","1024"
"undefined","undefined","undefined","undefined","black","no","legacy","0","uniform","undefined","undefined","undefined","8","8","17","8","8","NA","8","8","0","0","0","8","8","0","8","0","NA","8","0","Fri 26 Jul 2019 12:23:59 PM PDT","500","1000","The main experiment item","yes","NA","ABX_v3.osexp","/home/ubuntu/Desktop/panara","yes","no","mono","no","18","no","white","no","yes","768","8","8","/home/ubuntu/Desktop/panara/subject-115.csv","Jazzy James","3.1.3","2.2.5.wav","2.2.3.wav","2.2.3.wav","0","0","NA","0","NA","427","NA","427","NA","7813","space","2","1024","2","48000","-16","experiment","2.2.3.wav","2.2.5.wav","2.2.3.wav","115","odd","56934","59397","58897","58180","NA","NA","55934","60114","729","NA","NA","55931","60541","NA","55931","8545","NA","55934","732","New experiment","NA","0","0","0","yes","1024"
"undefined","undefined","undefined","undefined","black","no","legacy","0","uniform","undefined","undefined","undefined","9","9","19","9","9","NA","9","9","0","0","0","9","9","0","9","0","NA","9","0","Fri 26 Jul 2019 12:23:59 PM PDT","500","1000","The main experiment item","yes","NA","ABX_v3.osexp","/home/ubuntu/Desktop/panara","yes","no","mono","no","18","no","white","no","yes","768","9","9","/home/ubuntu/Desktop/panara/subject-115.csv","Jazzy James","3.1.3","3.2.4.wav","3.2.2.wav","3.2.2.wav","0","0","NA","0","NA","1571","NA","1571","NA","7813","space","2","1024","2","48000","-16","experiment","3.2.2.wav","3.2.4.wav","3.2.2.wav","115","odd","61779","64323","63823","63044","NA","NA","60779","65106","729","NA","NA","60776","66677","NA","60776","8545","NA","60779","732","New experiment","NA","0","0","0","yes","1024"
"undefined","undefined","undefined","undefined","black","no","legacy","0","uniform","undefined","undefined","undefined","10","10","21","10","10","NA","10","10","0","0","0","10","10","0","10","0","NA","10","0","Fri 26 Jul 2019 12:23:59 PM PDT","500","1000","The main experiment item","yes","NA","ABX_v3.osexp","/home/ubuntu/Desktop/panara","yes","no","mono","no","18","no","white","no","yes","768","10","10","/home/ubuntu/Desktop/panara/subject-115.csv","Jazzy James","3.1.3","5.2.4.wav","5.2.2.wav","5.2.2.wav","0","0","NA","0","NA","670","NA","670","NA","7813","space","2","1024","2","48000","-16","experiment","5.2.2.wav","5.2.4.wav","5.2.2.wav","115","odd","67839","70304","69804","69089","NA","NA","66839","71023","729","NA","NA","66836","71693","NA","66836","8545","NA","66839","732","New experiment","NA","0","0","0","yes","1024"
"undefined","undefined","undefined","undefined","black","no","legacy","0","uniform","undefined","undefined","undefined","11","11","23","11","11","NA","11","11","0","0","0","11","11","0","11","0","NA","11","0","Fri 26 Jul 2019 12:23:59 PM PDT","500","1000","The main experiment item","yes","NA","ABX_v3.osexp","/home/ubuntu/Desktop/panara","yes","no","mono","no","18","no","white","no","yes","768","11","11","/home/ubuntu/Desktop/panara/subject-115.csv","Jazzy James","3.1.3","1.1.3.wav","1.1.1.wav","1.1.1.wav","0","0","NA","0","NA","964","NA","964","NA","7813","space","2","1024","2","48000","-16","experiment","1.1.1.wav","1.1.3.wav","1.1.1.wav","115","odd","72886","75460","74960","74180","NA","NA","71886","76241","729","NA","NA","71883","77205","NA","71883","8545","NA","71886","732","New experiment","NA","0","0","0","yes","1024"
"undefined","undefined","undefined","undefined","black","no","legacy","0","uniform","undefined","undefined","undefined","12","12","25","12","12","NA","12","12","0","0","0","12","12","0","12","0","NA","12","0","Fri 26 Jul 2019 12:23:59 PM PDT","500","1000","The main experiment item","yes","NA","ABX_v3.osexp","/home/ubuntu/Desktop/panara","yes","no","mono","no","18","no","white","no","yes","768","12","12","/home/ubuntu/Desktop/panara/subject-115.csv","Jazzy James","3.1.3","2.1.5.wav","2.1.3.wav","2.1.3.wav","0","0","NA","0","NA","768","NA","768","NA","7813","space","2","1024","2","48000","-16","experiment","2.1.3.wav","2.1.5.wav","2.1.3.wav","115","odd","78367","80843","80343","79606","NA","NA","77366","81597","729","NA","NA","77364","82365","NA","77364","8545","NA","77367","732","New experiment","NA","0","0","0","yes","1024"
"undefined","undefined","undefined","undefined","black","no","legacy","0","uniform","undefined","undefined","undefined","13","13","27","13","13","NA","13","13","0","0","0","13","13","0","13","0","NA","13","0","Fri 26 Jul 2019 12:23:59 PM PDT","500","1000","The main experiment item","yes","NA","ABX_v3.osexp","/home/ubuntu/Desktop/panara","yes","no","mono","no","18","no","white","no","yes","768","13","13","/home/ubuntu/Desktop/panara/subject-115.csv","Jazzy James","3.1.3","1.2.5.wav","1.2.5.wav","1.2.3.wav","0","1","NA","1","NA","317","NA","317","NA","7813","space","2","1024","2","48000","-16","experiment","1.2.3.wav","1.2.5.wav","1.2.5.wav","115","odd","83561","86112","85612","84832","NA","NA","82561","86896","729","NA","NA","82558","87213","NA","82558","8545","NA","82561","732","New experiment","NA","0","0","0","yes","1024"
"undefined","undefined","undefined","undefined","black","no","legacy","0","uniform","undefined","undefined","undefined","14","14","29","14","14","NA","14","14","0","0","0","14","14","0","14","0","NA","14","0","Fri 26 Jul 2019 12:23:59 PM PDT","500","1000","The main experiment item","yes","NA","ABX_v3.osexp","/home/ubuntu/Desktop/panara","no","no","mono","no","18","no","white","no","yes","768","14","14","/home/ubuntu/Desktop/panara/subject-115.csv","Jazzy James","3.1.3","3.2.3.wav","3.2.3.wav","3.2.5.wav","0","1","NA","1","NA","2148","NA","2148","NA","7813","space","2","1024","2","48000","-16","experiment","3.2.3.wav","3.2.5.wav","3.2.3.wav","115","odd","88439","90948","90448","89697","NA","NA","87439","91730","729","NA","NA","87436","93879","NA","87436","8545","NA","87439","732","New experiment","NA","0","0","0","yes","1024"
"undefined","undefined","undefined","undefined","black","no","legacy","0","uniform","undefined","undefined","undefined","15","15","31","15","15","NA","15","15","0","0","0","15","15","0","15","0","NA","15","0","Fri 26 Jul 2019 12:23:59 PM PDT","500","1000","The main experiment item","yes","NA","ABX_v3.osexp","/home/ubuntu/Desktop/panara","no","no","mono","no","18","no","white","no","yes","768","15","15","/home/ubuntu/Desktop/panara/subject-115.csv","Jazzy James","3.1.3","4.1.3.wav","4.1.5.wav","4.1.5.wav","0","0","NA","0","NA","325","NA","325","NA","7813","space","2","1024","2","48000","-16","experiment","4.1.3.wav","4.1.5.wav","4.1.5.wav","115","odd","95101","97562","97062","96323","NA","NA","94100","98280","729","NA","NA","94097","98606","NA","94097","8545","NA","94101","732","New experiment","NA","0","0","0","yes","1024"
"undefined","undefined","undefined","undefined","black","no","legacy","0","uniform","undefined","undefined","undefined","16","16","33","16","16","NA","16","16","0","0","0","16","16","0","16","0","NA","16","0","Fri 26 Jul 2019 12:23:59 PM PDT","500","1000","The main experiment item","yes","NA","ABX_v3.osexp","/home/ubuntu/Desktop/panara","yes","no","mono","no","18","no","white","no","yes","768","16","16","/home/ubuntu/Desktop/panara/subject-115.csv","Jazzy James","3.1.3","3.2.5.wav","3.2.5.wav","3.2.3.wav","0","1","NA","1","NA","1206","NA","1206","NA","7813","space","2","1024","2","48000","-16","experiment","3.2.3.wav","3.2.5.wav","3.2.5.wav","115","odd","99766","102326","101826","101046","NA","NA","98766","103079","729","NA","NA","98764","104286","NA","98764","8545","NA","98766","732","New experiment","NA","0","0","0","yes","1024"
"undefined","undefined","undefined","undefined","black","no","legacy","0","uniform","undefined","undefined","undefined","17","17","35","17","17","NA","17","17","0","0","0","17","17","0","17","0","NA","17","0","Fri 26 Jul 2019 12:23:59 PM PDT","500","1000","The main experiment item","yes","NA","ABX_v3.osexp","/home/ubuntu/Desktop/panara","no","no","mono","no","18","no","white","no","yes","768","17","17","/home/ubuntu/Desktop/panara/subject-115.csv","Jazzy James","3.1.3","1.2.1.wav","1.2.3.wav","1.2.3.wav","0","1","NA","1","NA","474","NA","474","NA","7813","space","2","1024","2","48000","-16","experiment","1.2.1.wav","1.2.3.wav","1.2.3.wav","115","odd","105448","108015","107515","106735","NA","NA","104448","108987","729","NA","NA","104445","109462","NA","104445","8545","NA","104448","732","New experiment","NA","0","0","0","yes","1024"
"undefined","undefined","undefined","undefined","black","no","legacy","0","uniform","undefined","undefined","undefined","18","18","37","18","18","NA","18","18","0","0","0","18","18","0","18","0","NA","18","0","Fri 26 Jul 2019 12:23:59 PM PDT","500","1000","The main experiment item","yes","NA","ABX_v3.osexp","/home/ubuntu/Desktop/panara","no","no","mono","no","18","no","white","no","yes","768","18","18","/home/ubuntu/Desktop/panara/subject-115.csv","Jazzy James","3.1.3","4.1.3.wav","4.1.3.wav","4.1.5.wav","0","0","NA","0","NA","668","NA","668","NA","7813","space","2","1024","2","48000","-16","experiment","4.1.3.wav","4.1.5.wav","4.1.3.wav","115","odd","110612","113133","112633","111874","NA","NA","109611","113857","729","NA","NA","109609","114526","NA","109608","8545","NA","109612","732","New experiment","NA","0","0","0","yes","1024"
"undefined","undefined","undefined","undefined","black","no","legacy","0","uniform","undefined","undefined","undefined","19","19","39","19","19","NA","19","19","0","0","0","19","19","0","19","0","NA","19","0","Fri 26 Jul 2019 12:23:59 PM PDT","500","1000","The main experiment item","yes","NA","ABX_v3.osexp","/home/ubuntu/Desktop/panara","no","no","mono","no","18","no","white","no","yes","768","19","19","/home/ubuntu/Desktop/panara/subject-115.csv","Jazzy James","3.1.3","1.2.2.wav","1.2.2.wav","1.2.4.wav","0","1","NA","1","NA","1075","NA","1075","NA","7813","space","2","1024","2","48000","-16","experiment","1.2.2.wav","1.2.4.wav","1.2.2.wav","115","odd","115717","118280","117780","117001","NA","NA","114717","119035","729","NA","NA","114715","120110","NA","114715","8545","NA","114717","732","New experiment","NA","0","0","0","yes","1024"
"undefined","undefined","undefined","undefined","black","no","legacy","0","uniform","undefined","undefined","undefined","20","20","41","20","20","NA","20","20","0","0","0","20","20","0","20","0","NA","20","0","Fri 26 Jul 2019 12:23:59 PM PDT","500","1000","The main experiment item","yes","NA","ABX_v3.osexp","/home/ubuntu/Desktop/panara","no","no","mono","no","18","no","white","no","yes","768","20","20","/home/ubuntu/Desktop/panara/subject-115.csv","Jazzy James","3.1.3","4.2.2.wav","4.2.2.wav","4.2.4.wav","0","1","NA","1","NA","483","NA","483","NA","7813","space","2","1024","2","48000","-16","experiment","4.2.2.wav","4.2.4.wav","4.2.2.wav","115","odd","121289","123742","123242","122520","NA","NA","120289","124460","729","NA","NA","120287","124943","NA","120287","8545","NA","120289","732","New experiment","NA","0","0","0","yes","1024"
"undefined","undefined","undefined","undefined","black","no","legacy","0","uniform","undefined","undefined","undefined","21","21","43","21","21","NA","21","21","0","0","0","21","21","0","21","0","NA","21","0","Fri 26 Jul 2019 12:23:59 PM PDT","500","1000","The main experiment item","yes","NA","ABX_v3.osexp","/home/ubuntu/Desktop/panara","yes","no","mono","no","18","no","white","no","yes","768","21","21","/home/ubuntu/Desktop/panara/subject-115.csv","Jazzy James","3.1.3","1.1.3.wav","1.1.3.wav","1.1.1.wav","0","1","NA","1","NA","659","NA","659","NA","7813","space","2","1024","2","48000","-16","experiment","1.1.1.wav","1.1.3.wav","1.1.3.wav","115","odd","126126","128684","128184","127406","NA","NA","125125","129467","729","NA","NA","125122","130126","NA","125122","8545","NA","125126","732","New experiment","NA","0","0","0","yes","1024"
"undefined","undefined","undefined","undefined","black","no","legacy","0","uniform","undefined","undefined","undefined","22","22","45","22","22","NA","22","22","0","0","0","22","22","0","22","0","NA","22","0","Fri 26 Jul 2019 12:23:59 PM PDT","500","1000","The main experiment item","yes","NA","ABX_v3.osexp","/home/ubuntu/Desktop/panara","no","no","mono","no","18","no","white","no","yes","768","22","22","/home/ubuntu/Desktop/panara/subject-115.csv","Jazzy James","3.1.3","3.2.1.wav","3.2.3.wav","3.2.3.wav","0","0","NA","0","NA","557","NA","557","NA","7813","space","2","1024","2","48000","-16","experiment","3.2.1.wav","3.2.3.wav","3.2.3.wav","115","odd","131304","133796","133296","132552","NA","NA","130304","134544","729","NA","NA","130301","135101","NA","130301","8545","NA","130304","732","New experiment","NA","0","0","0","yes","1024"
"undefined","undefined","undefined","undefined","black","no","legacy","0","uniform","undefined","undefined","undefined","23","23","47","23","23","NA","23","23","0","0","0","23","23","0","23","0","NA","23","0","Fri 26 Jul 2019 12:23:59 PM PDT","500","1000","The main experiment item","yes","NA","ABX_v3.osexp","/home/ubuntu/Desktop/panara","no","no","mono","no","18","no","white","no","yes","768","23","23","/home/ubuntu/Desktop/panara/subject-115.csv","Jazzy James","3.1.3","4.1.1.wav","4.1.3.wav","4.1.3.wav","0","0","NA","0","NA","132","NA","132","NA","7813","space","2","1024","2","48000","-16","experiment","4.1.1.wav","4.1.3.wav","4.1.3.wav","115","odd","136308","138796","138296","137543","NA","NA","135308","139520","729","NA","NA","135305","139653","NA","135305","8545","NA","135308","732","New experiment","NA","0","0","0","yes","1024"
"undefined","undefined","undefined","undefined","black","no","legacy","0","uniform","undefined","undefined","undefined","24","24","49","24","24","NA","24","24","0","0","0","24","24","0","24","0","NA","24","0","Fri 26 Jul 2019 12:23:59 PM PDT","500","1000","The main experiment item","yes","NA","ABX_v3.osexp","/home/ubuntu/Desktop/panara","yes","no","mono","no","18","no","white","no","yes","768","24","24","/home/ubuntu/Desktop/panara/subject-115.csv","Jazzy James","3.1.3","4.2.5.wav","4.2.3.wav","4.2.3.wav","0","0","NA","0","NA","625","NA","625","NA","7813","space","2","1024","2","48000","-16","experiment","4.2.3.wav","4.2.5.wav","4.2.3.wav","115","odd","140803","143302","142802","142060","NA","NA","139802","144058","729","NA","NA","139800","144684","NA","139799","8545","NA","139803","732","New experiment","NA","0","0","0","yes","1024"
"undefined","undefined","undefined","undefined","black","no","legacy","0","uniform","undefined","undefined","undefined","25","25","51","25","25","NA","25","25","0","0","0","25","25","0","25","0","NA","25","0","Fri 26 Jul 2019 12:23:59 PM PDT","500","1000","The main experiment item","yes","NA","ABX_v3.osexp","/home/ubuntu/Desktop/panara","yes","no","mono","no","18","no","white","no","yes","768","25","25","/home/ubuntu/Desktop/panara/subject-115.csv","Jazzy James","3.1.3","2.2.3.wav","2.2.1.wav","2.2.1.wav","0","0","NA","0","NA","723","NA","723","NA","7813","space","2","1024","2","48000","-16","experiment","2.2.1.wav","2.2.3.wav","2.2.1.wav","115","odd","145858","148333","147832","147079","NA","NA","144858","149048","729","NA","NA","144855","149771","NA","144855","8545","NA","144858","732","New experiment","NA","0","0","0","yes","1024"
"undefined","undefined","undefined","undefined","black","no","legacy","0","uniform","undefined","undefined","undefined","26","26","53","26","26","NA","26","26","0","0","0","26","26","0","26","0","NA","26","0","Fri 26 Jul 2019 12:23:59 PM PDT","500","1000","The main experiment item","yes","NA","ABX_v3.osexp","/home/ubuntu/Desktop/panara","no","no","mono","no","18","no","white","no","yes","768","26","26","/home/ubuntu/Desktop/panara/subject-115.csv","Jazzy James","3.1.3","4.2.1.wav","4.2.1.wav","4.2.3.wav","0","1","NA","1","NA","361","NA","361","NA","7813","space","2","1024","2","48000","-16","experiment","4.2.1.wav","4.2.3.wav","4.2.1.wav","115","odd","150954","153409","152908","152193","NA","NA","149954","154153","729","NA","NA","149951","154515","NA","149951","8545","NA","149954","732","New experiment","NA","0","0","0","yes","1024"
"undefined","undefined","undefined","undefined","black","no","legacy","0","uniform","undefined","undefined","undefined","27","27","55","27","27","NA","27","27","0","0","0","27","27","0","27","0","NA","27","0","Fri 26 Jul 2019 12:23:59 PM PDT","500","1000","The main experiment item","yes","NA","ABX_v3.osexp","/home/ubuntu/Desktop/panara","no","no","mono","no","18","no","white","no","yes","768","27","27","/home/ubuntu/Desktop/panara/subject-115.csv","Jazzy James","3.1.3","4.1.2.wav","4.1.2.wav","4.1.4.wav","0","0","NA","0","NA","604","NA","604","NA","7813","space","2","1024","2","48000","-16","experiment","4.1.2.wav","4.1.4.wav","4.1.2.wav","115","odd","155721","158170","157670","156949","NA","NA","154720","158926","729","NA","NA","154718","159530","NA","154718","8545","NA","154721","732","New experiment","NA","0","0","0","yes","1024"
"undefined","undefined","undefined","undefined","black","no","legacy","0","uniform","undefined","undefined","undefined","28","28","57","28","28","NA","28","28","0","0","0","28","28","0","28","0","NA","28","0","Fri 26 Jul 2019 12:23:59 PM PDT","500","1000","The main experiment item","yes","NA","ABX_v3.osexp","/home/ubuntu/Desktop/panara","no","no","mono","no","18","no","white","no","yes","768","28","28","/home/ubuntu/Desktop/panara/subject-115.csv","Jazzy James","3.1.3","2.2.2.wav","2.2.4.wav","2.2.4.wav","0","0","NA","0","NA","948","NA","948","NA","7813","space","2","1024","2","48000","-16","experiment","2.2.2.wav","2.2.4.wav","2.2.4.wav","115","odd","160751","163225","162725","162002","NA","NA","159751","163982","729","NA","NA","159748","164931","NA","159748","8545","NA","159751","732","New experiment","NA","0","0","0","yes","1024"
"undefined","undefined","undefined","undefined","black","no","legacy","0","uniform","undefined","undefined","undefined","29","29","59","29","29","NA","29","29","0","0","0","29","29","0","29","0","NA","29","0","Fri 26 Jul 2019 12:23:59 PM PDT","500","1000","The main experiment item","yes","NA","ABX_v3.osexp","/home/ubuntu/Desktop/panara","no","no","mono","no","18","no","white","no","yes","768","29","29","/home/ubuntu/Desktop/panara/subject-115.csv","Jazzy James","3.1.3","5.2.3.wav","5.2.3.wav","5.2.5.wav","0","1","NA","1","NA","616","NA","616","NA","7813","space","2","1024","2","48000","-16","experiment","5.2.3.wav","5.2.5.wav","5.2.3.wav","115","odd","166104","168573","168073","167322","NA","NA","165104","169298","729","NA","NA","165101","169914","NA","165101","8545","NA","165104","732","New experiment","NA","0","0","0","yes","1024"
"undefined","undefined","undefined","undefined","black","no","legacy","0","uniform","undefined","undefined","undefined","30","30","61","30","30","NA","30","30","0","0","0","30","30","0","30","0","NA","30","0","Fri 26 Jul 2019 12:23:59 PM PDT","500","1000","The main experiment item","yes","NA","ABX_v3.osexp","/home/ubuntu/Desktop/panara","no","no","mono","no","18","no","white","no","yes","768","30","30","/home/ubuntu/Desktop/panara/subject-115.csv","Jazzy James","3.1.3","1.1.3.wav","1.1.3.wav","1.1.5.wav","0","1","NA","1","NA","388","NA","388","NA","7813","space","2","1024","2","48000","-16","experiment","1.1.3.wav","1.1.5.wav","1.1.3.wav","115","odd","171072","173686","173186","172385","NA","NA","170072","174468","729","NA","NA","170070","174857","NA","170070","8545","NA","170072","732","New experiment","NA","0","0","0","yes","1024"
"undefined","undefined","undefined","undefined","black","no","legacy","0","uniform","undefined","undefined","undefined","31","31","63","31","31","NA","31","31","0","0","0","31","31","0","31","0","NA","31","0","Fri 26 Jul 2019 12:23:59 PM PDT","500","1000","The main experiment item","yes","NA","ABX_v3.osexp","/home/ubuntu/Desktop/panara","no","no","mono","no","18","no","white","no","yes","768","31","31","/home/ubuntu/Desktop/panara/subject-115.csv","Jazzy James","3.1.3","3.1.2.wav","3.1.2.wav","3.1.4.wav","0","0","NA","0","NA","777","NA","777","NA","7813","space","2","1024","2","48000","-16","experiment","3.1.2.wav","3.1.4.wav","3.1.2.wav","115","odd","176006","178579","178079","177297","NA","NA","175006","179359","729","NA","NA","175004","180136","NA","175003","8545","NA","175006","732","New experiment","NA","0","0","0","yes","1024"
"undefined","undefined","undefined","undefined","black","no","legacy","0","uniform","undefined","undefined","undefined","32","32","65","32","32","NA","32","32","0","0","0","32","32","0","32","0","NA","32","0","Fri 26 Jul 2019 12:23:59 PM PDT","500","1000","The main experiment item","yes","NA","ABX_v3.osexp","/home/ubuntu/Desktop/panara","no","no","mono","no","18","no","white","no","yes","768","32","32","/home/ubuntu/Desktop/panara/subject-115.csv","Jazzy James","3.1.3","4.1.2.wav","4.1.4.wav","4.1.4.wav","0","1","NA","1","NA","512","NA","512","NA","7813","space","2","1024","2","48000","-16","experiment","4.1.2.wav","4.1.4.wav","4.1.4.wav","115","odd","181286","183746","183246","182525","NA","NA","180285","184465","729","NA","NA","180283","184977","NA","180283","8545","NA","180286","732","New experiment","NA","0","0","0","yes","1024"
"undefined","undefined","undefined","undefined","black","no","legacy","0","uniform","undefined","undefined","undefined","33","33","67","33","33","NA","33","33","0","0","0","33","33","0","33","0","NA","33","0","Fri 26 Jul 2019 12:23:59 PM PDT","500","1000","The main experiment item","yes","NA","ABX_v3.osexp","/home/ubuntu/Desktop/panara","no","no","mono","no","18","no","white","no","yes","768","33","33","/home/ubuntu/Desktop/panara/subject-115.csv","Jazzy James","3.1.3","3.1.1.wav","3.1.1.wav","3.1.3.wav","0","1","NA","1","NA","1557","NA","1557","NA","7813","space","2","1024","2","48000","-16","experiment","3.1.1.wav","3.1.3.wav","3.1.1.wav","115","odd","186180","188690","188190","187438","NA","NA","185180","189435","729","NA","NA","185177","190993","NA","185177","8545","NA","185180","732","New experiment","NA","0","0","0","yes","1024"
"undefined","undefined","undefined","undefined","black","no","legacy","0","uniform","undefined","undefined","undefined","34","34","69","34","34","NA","34","34","0","0","0","34","34","0","34","0","NA","34","0","Fri 26 Jul 2019 12:23:59 PM PDT","500","1000","The main experiment item","yes","NA","ABX_v3.osexp","/home/ubuntu/Desktop/panara","yes","no","mono","no","18","no","white","no","yes","768","34","34","/home/ubuntu/Desktop/panara/subject-115.csv","Jazzy James","3.1.3","3.2.3.wav","3.2.1.wav","3.2.1.wav","0","0","NA","0","NA","611","NA","611","NA","7813","space","2","1024","2","48000","-16","experiment","3.2.1.wav","3.2.3.wav","3.2.1.wav","115","odd","192146","194656","194156","193406","NA","NA","191146","195404","729","NA","NA","191144","196015","NA","191143","8545","NA","191146","732","New experiment","NA","0","0","0","yes","1024"
"undefined","undefined","undefined","undefined","black","no","legacy","0","uniform","undefined","undefined","undefined","35","35","71","35","35","NA","35","35","0","0","0","35","35","0","35","0","NA","35","0","Fri 26 Jul 2019 12:23:59 PM PDT","500","1000","The main experiment item","yes","NA","ABX_v3.osexp","/home/ubuntu/Desktop/panara","yes","no","mono","no","18","no","white","no","yes","768","35","35","/home/ubuntu/Desktop/panara/subject-115.csv","Jazzy James","3.1.3","1.2.4.wav","1.2.4.wav","1.2.2.wav","0","1","NA","1","NA","439","NA","439","NA","7813","space","2","1024","2","48000","-16","experiment","1.2.2.wav","1.2.4.wav","1.2.4.wav","115","odd","197138","199632","199132","198382","NA","NA","196137","200408","729","NA","NA","196135","200847","NA","196135","8545","NA","196138","732","New experiment","NA","0","0","0","yes","1024"
"undefined","undefined","undefined","undefined","black","no","legacy","0","uniform","undefined","undefined","undefined","36","36","73","36","36","NA","36","36","0","0","0","36","36","0","36","0","NA","36","0","Fri 26 Jul 2019 12:23:59 PM PDT","500","1000","The main experiment item","yes","NA","ABX_v3.osexp","/home/ubuntu/Desktop/panara","no","no","mono","no","18","no","white","no","yes","768","36","36","/home/ubuntu/Desktop/panara/subject-115.csv","Jazzy James","3.1.3","3.2.2.wav","3.2.4.wav","3.2.4.wav","0","0","NA","0","NA","377","NA","377","NA","7813","space","2","1024","2","48000","-16","experiment","3.2.2.wav","3.2.4.wav","3.2.4.wav","115","odd","202003","204546","204046","203295","NA","NA","201003","205302","729","NA","NA","201000","205679","NA","201000","8545","NA","201003","732","New experiment","NA","0","0","0","yes","1024"
"undefined","undefined","undefined","undefined","black","no","legacy","0","uniform","undefined","undefined","undefined","37","37","75","37","37","NA","37","37","0","0","0","37","37","0","37","0","NA","37","0","Fri 26 Jul 2019 12:23:59 PM PDT","500","1000","The main experiment item","yes","NA","ABX_v3.osexp","/home/ubuntu/Desktop/panara","no","no","mono","no","18","no","white","no","yes","768","37","37","/home/ubuntu/Desktop/panara/subject-115.csv","Jazzy James","3.1.3","1.1.2.wav","1.1.2.wav","1.1.4.wav","0","1","NA","1","NA","439","NA","439","NA","7813","space","2","1024","2","48000","-16","experiment","1.1.2.wav","1.1.4.wav","1.1.2.wav","115","odd","206856","209490","208990","208179","NA","NA","205855","210271","729","NA","NA","205853","210711","NA","205853","8545","NA","205856","732","New experiment","NA","0","0","0","yes","1024"
"undefined","undefined","undefined","undefined","black","no","legacy","0","uniform","undefined","undefined","undefined","38","38","77","38","38","NA","38","38","0","0","0","38","38","0","38","0","NA","38","0","Fri 26 Jul 2019 12:23:59 PM PDT","500","1000","The main experiment item","yes","NA","ABX_v3.osexp","/home/ubuntu/Desktop/panara","yes","no","mono","no","18","no","white","no","yes","768","38","38","/home/ubuntu/Desktop/panara/subject-115.csv","Jazzy James","3.1.3","5.2.3.wav","5.2.1.wav","5.2.1.wav","0","0","NA","0","NA","1325","NA","1325","NA","7813","space","2","1024","2","48000","-16","experiment","5.2.1.wav","5.2.3.wav","5.2.1.wav","115","odd","211928","214390","213890","213163","NA","NA","210928","215097","729","NA","NA","210926","216423","NA","210926","8545","NA","210928","732","New experiment","NA","0","0","0","yes","1024"
"undefined","undefined","undefined","undefined","black","no","legacy","0","uniform","undefined","undefined","undefined","39","39","79","39","39","NA","39","39","0","0","0","39","39","0","39","0","NA","39","0","Fri 26 Jul 2019 12:23:59 PM PDT","500","1000","The main experiment item","yes","NA","ABX_v3.osexp","/home/ubuntu/Desktop/panara","yes","no","mono","no","18","no","white","no","yes","768","39","39","/home/ubuntu/Desktop/panara/subject-115.csv","Jazzy James","3.1.3","4.1.3.wav","4.1.1.wav","4.1.1.wav","0","1","NA","1","NA","355","NA","355","NA","7813","space","2","1024","2","48000","-16","experiment","4.1.1.wav","4.1.3.wav","4.1.1.wav","115","odd","217578","220033","219533","218812","NA","NA","216578","220787","729","NA","NA","216575","221142","NA","216575","8545","NA","216578","732","New experiment","NA","0","0","0","yes","1024"
"undefined","undefined","undefined","undefined","black","no","legacy","0","uniform","undefined","undefined","undefined","40","40","81","40","40","NA","40","40","0","0","0","40","40","0","40","0","NA","40","0","Fri 26 Jul 2019 12:23:59 PM PDT","500","1000","The main experiment item","yes","NA","ABX_v3.osexp","/home/ubuntu/Desktop/panara","yes","no","mono","no","18","no","white","no","yes","768","40","40","/home/ubuntu/Desktop/panara/subject-115.csv","Jazzy James","3.1.3","3.1.5.wav","3.1.5.wav","3.1.3.wav","0","1","NA","1","NA","142","NA","142","NA","7813","space","2","1024","2","48000","-16","experiment","3.1.3.wav","3.1.5.wav","3.1.5.wav","115","odd","222317","224871","224371","223588","NA","NA","221317","225624","729","NA","NA","221315","225766","NA","221315","8545","NA","221317","732","New experiment","NA","0","0","0","yes","1024"
"undefined","undefined","undefined","undefined","black","no","legacy","0","uniform","undefined","undefined","undefined","41","41","83","41","41","NA","41","41","0","0","0","41","41","0","41","0","NA","41","0","Fri 26 Jul 2019 12:23:59 PM PDT","500","1000","The main experiment item","yes","NA","ABX_v3.osexp","/home/ubuntu/Desktop/panara","yes","no","mono","no","18","no","white","no","yes","768","41","41","/home/ubuntu/Desktop/panara/subject-115.csv","Jazzy James","3.1.3","2.1.3.wav","2.1.3.wav","2.1.1.wav","0","0","NA","0","NA","341","NA","341","NA","7813","space","2","1024","2","48000","-16","experiment","2.1.1.wav","2.1.3.wav","2.1.3.wav","115","odd","226931","229450","228950","228182","NA","NA","225931","230201","729","NA","NA","225928","230542","NA","225928","8545","NA","225931","732","New experiment","NA","0","0","0","yes","1024"
"undefined","undefined","undefined","undefined","black","no","legacy","0","uniform","undefined","undefined","undefined","42","42","85","42","42","NA","42","42","0","0","0","42","42","0","42","0","NA","42","0","Fri 26 Jul 2019 12:23:59 PM PDT","500","1000","The main experiment item","yes","NA","ABX_v3.osexp","/home/ubuntu/Desktop/panara","no","no","mono","no","18","no","white","no","yes","768","42","42","/home/ubuntu/Desktop/panara/subject-115.csv","Jazzy James","3.1.3","2.1.2.wav","2.1.4.wav","2.1.4.wav","0","0","NA","0","NA","378","NA","378","NA","7813","space","2","1024","2","48000","-16","experiment","2.1.2.wav","2.1.4.wav","2.1.4.wav","115","odd","231751","234256","233756","233003","NA","NA","230750","234987","729","NA","NA","230747","235366","NA","230747","8545","NA","230750","732","New experiment","NA","0","0","0","yes","1024"
"undefined","undefined","undefined","undefined","black","no","legacy","0","uniform","undefined","undefined","undefined","43","43","87","43","43","NA","43","43","0","0","0","43","43","0","43","0","NA","43","0","Fri 26 Jul 2019 12:23:59 PM PDT","500","1000","The main experiment item","yes","NA","ABX_v3.osexp","/home/ubuntu/Desktop/panara","yes","no","mono","no","18","no","white","no","yes","768","43","43","/home/ubuntu/Desktop/panara/subject-115.csv","Jazzy James","3.1.3","2.2.3.wav","2.2.3.wav","2.2.1.wav","0","1","NA","1","NA","248","NA","248","NA","7813","space","2","1024","2","48000","-16","experiment","2.2.1.wav","2.2.3.wav","2.2.3.wav","115","odd","236546","239027","238527","237805","NA","NA","235545","239781","729","NA","NA","235543","240030","NA","235542","8545","NA","235546","732","New experiment","NA","0","0","0","yes","1024"
"undefined","undefined","undefined","undefined","black","no","legacy","0","uniform","undefined","undefined","undefined","44","44","89","44","44","NA","44","44","0","0","0","44","44","0","44","0","NA","44","0","Fri 26 Jul 2019 12:23:59 PM PDT","500","1000","The main experiment item","yes","NA","ABX_v3.osexp","/home/ubuntu/Desktop/panara","no","no","mono","no","18","no","white","no","yes","768","44","44","/home/ubuntu/Desktop/panara/subject-115.csv","Jazzy James","3.1.3","2.1.1.wav","2.1.1.wav","2.1.3.wav","0","1","NA","1","NA","572","NA","572","NA","7813","space","2","1024","2","48000","-16","experiment","2.1.1.wav","2.1.3.wav","2.1.1.wav","115","odd","241177","243692","243192","242442","NA","NA","240176","244441","729","NA","NA","240174","245014","NA","240174","8545","NA","240177","732","New experiment","NA","0","0","0","yes","1024"
"undefined","undefined","undefined","undefined","black","no","legacy","0","uniform","undefined","undefined","undefined","45","45","91","45","45","NA","45","45","0","0","0","45","45","0","45","0","NA","45","0","Fri 26 Jul 2019 12:23:59 PM PDT","500","1000","The main experiment item","yes","NA","ABX_v3.osexp","/home/ubuntu/Desktop/panara","yes","no","mono","no","18","no","white","no","yes","768","45","45","/home/ubuntu/Desktop/panara/subject-115.csv","Jazzy James","3.1.3","1.1.5.wav","1.1.5.wav","1.1.3.wav","0","1","NA","1","NA","521","NA","521","NA","7813","space","2","1024","2","48000","-16","experiment","1.1.3.wav","1.1.5.wav","1.1.5.wav","115","odd","246185","248748","248248","247478","NA","NA","245185","249540","729","NA","NA","245183","250062","NA","245182","8545","NA","245185","732","New experiment","NA","0","0","0","yes","1024"
"undefined","undefined","undefined","undefined","black","no","legacy","0","uniform","undefined","undefined","undefined","46","46","93","46","46","NA","46","46","0","0","0","46","46","0","46","0","NA","46","0","Fri 26 Jul 2019 12:23:59 PM PDT","500","1000","The main experiment item","yes","NA","ABX_v3.osexp","/home/ubuntu/Desktop/panara","no","no","mono","no","18","no","white","no","yes","768","46","46","/home/ubuntu/Desktop/panara/subject-115.csv","Jazzy James","3.1.3","3.1.1.wav","3.1.3.wav","3.1.3.wav","0","1","NA","1","NA","593","NA","593","NA","7813","space","2","1024","2","48000","-16","experiment","3.1.1.wav","3.1.3.wav","3.1.3.wav","115","odd","251220","253749","253249","252486","NA","NA","250220","254484","729","NA","NA","250217","255078","NA","250217","8545","NA","250220","732","New experiment","NA","0","0","0","yes","1024"
"undefined","undefined","undefined","undefined","black","no","legacy","0","uniform","undefined","undefined","undefined","47","47","95","47","47","NA","47","47","0","0","0","47","47","0","47","0","NA","47","0","Fri 26 Jul 2019 12:23:59 PM PDT","500","1000","The main experiment item","yes","NA","ABX_v3.osexp","/home/ubuntu/Desktop/panara","no","no","mono","no","18","no","white","no","yes","768","47","47","/home/ubuntu/Desktop/panara/subject-115.csv","Jazzy James","3.1.3","2.1.2.wav","2.1.2.wav","2.1.4.wav","0","1","NA","1","NA","654","NA","654","NA","7813","space","2","1024","2","48000","-16","experiment","2.1.2.wav","2.1.4.wav","2.1.2.wav","115","odd","256271","258762","258262","257520","NA","NA","255271","259519","729","NA","NA","255268","260173","NA","255268","8545","NA","255271","732","New experiment","NA","0","0","0","yes","1024"
"undefined","undefined","undefined","undefined","black","no","legacy","0","uniform","undefined","undefined","undefined","48","48","97","48","48","NA","48","48","0","0","0","48","48","0","48","0","NA","48","0","Fri 26 Jul 2019 12:23:59 PM PDT","500","1000","The main experiment item","yes","NA","ABX_v3.osexp","/home/ubuntu/Desktop/panara","yes","no","mono","no","18","no","white","no","yes","768","48","48","/home/ubuntu/Desktop/panara/subject-115.csv","Jazzy James","3.1.3","3.1.5.wav","3.1.3.wav","3.1.3.wav","0","0","NA","0","NA","523","NA","523","NA","7813","space","2","1024","2","48000","-16","experiment","3.1.3.wav","3.1.5.wav","3.1.3.wav","115","odd","261349","263881","263381","262644","NA","NA","260349","264634","729","NA","NA","260347","265157","NA","260346","8545","NA","260349","732","New experiment","NA","0","0","0","yes","1024"
"undefined","undefined","undefined","undefined","black","no","legacy","0","uniform","undefined","undefined","undefined","49","49","99","49","49","NA","49","49","0","0","0","49","49","0","49","0","NA","49","0","Fri 26 Jul 2019 12:23:59 PM PDT","500","1000","The main experiment item","yes","NA","ABX_v3.osexp","/home/ubuntu/Desktop/panara","yes","no","mono","no","18","no","white","no","yes","768","49","49","/home/ubuntu/Desktop/panara/subject-115.csv","Jazzy James","3.1.3","4.2.3.wav","4.2.3.wav","4.2.1.wav","0","1","NA","1","NA","875","NA","875","NA","7813","space","2","1024","2","48000","-16","experiment","4.2.1.wav","4.2.3.wav","4.2.3.wav","115","odd","266337","268851","268351","267593","NA","NA","265337","269586","729","NA","NA","265335","270461","NA","265335","8545","NA","265337","732","New experiment","NA","0","0","0","yes","1024"
"undefined","undefined","undefined","undefined","black","no","legacy","0","uniform","undefined","undefined","undefined","50","50","101","50","50","NA","50","50","0","0","0","50","50","0","50","0","NA","50","0","Fri 26 Jul 2019 12:23:59 PM PDT","500","1000","The main experiment item","yes","NA","ABX_v3.osexp","/home/ubuntu/Desktop/panara","no","no","mono","no","18","no","white","no","yes","768","50","50","/home/ubuntu/Desktop/panara/subject-115.csv","Jazzy James","3.1.3","5.2.1.wav","5.2.3.wav","5.2.3.wav","0","0","space","0","NA","1094","11426","1094","NA","7813","space","2","1024","2","48000","-16","experiment","5.2.1.wav","5.2.3.wav","5.2.3.wav","115","odd","283056","285518","285018","284281","270627","NA","282056","286271","729","NA","NA","270624","287365","NA","270624","8545","NA","282056","732","New experiment","NA","0","0","0","yes","1024"
"undefined","undefined","undefined","undefined","black","no","legacy","0","uniform","undefined","undefined","undefined","51","51","103","51","51","NA","51","51","0","0","0","51","51","0","51","0","NA","51","0","Fri 26 Jul 2019 12:23:59 PM PDT","500","1000","The main experiment item","yes","NA","ABX_v3.osexp","/home/ubuntu/Desktop/panara","yes","no","mono","no","18","no","white","no","yes","768","51","51","/home/ubuntu/Desktop/panara/subject-115.csv","Jazzy James","3.1.3","2.2.5.wav","2.2.5.wav","2.2.3.wav","0","0","space","0","NA","642","11426","642","NA","7813","space","2","1024","2","48000","-16","experiment","2.2.3.wav","2.2.5.wav","2.2.5.wav","115","odd","288541","291018","290518","289793","270627","NA","287541","291731","729","NA","NA","287539","292373","NA","287539","8545","NA","287541","732","New experiment","NA","0","0","0","yes","1024"
"undefined","undefined","undefined","undefined","black","no","legacy","0","uniform","undefined","undefined","undefined","52","52","105","52","52","NA","52","52","0","0","0","52","52","0","52","0","NA","52","0","Fri 26 Jul 2019 12:23:59 PM PDT","500","1000","The main experiment item","yes","NA","ABX_v3.osexp","/home/ubuntu/Desktop/panara","no","no","mono","no","18","no","white","no","yes","768","52","52","/home/ubuntu/Desktop/panara/subject-115.csv","Jazzy James","3.1.3","2.1.3.wav","2.1.5.wav","2.1.5.wav","0","0","space","0","NA","3856","11426","3856","NA","7813","space","2","1024","2","48000","-16","experiment","2.1.3.wav","2.1.5.wav","2.1.5.wav","115","odd","293537","296035","295535","294789","270627","NA","292537","296788","729","NA","NA","292534","300645","NA","292534","8545","NA","292537","732","New experiment","NA","0","0","0","yes","1024"
"undefined","undefined","undefined","undefined","black","no","legacy","0","uniform","undefined","undefined","undefined","53","53","107","53","53","NA","53","53","0","0","0","53","53","0","53","0","NA","53","0","Fri 26 Jul 2019 12:23:59 PM PDT","500","1000","The main experiment item","yes","NA","ABX_v3.osexp","/home/ubuntu/Desktop/panara","no","no","mono","no","18","no","white","no","yes","768","53","53","/home/ubuntu/Desktop/panara/subject-115.csv","Jazzy James","3.1.3","1.1.2.wav","1.1.4.wav","1.1.4.wav","0","1","space","1","NA","710","11426","710","NA","7813","space","2","1024","2","48000","-16","experiment","1.1.2.wav","1.1.4.wav","1.1.4.wav","115","odd","301806","304396","303896","303109","270627","NA","300806","305159","729","NA","NA","300803","305870","NA","300803","8545","NA","300806","732","New experiment","NA","0","0","0","yes","1024"
"undefined","undefined","undefined","undefined","black","no","legacy","0","uniform","undefined","undefined","undefined","54","54","109","54","54","NA","54","54","0","0","0","54","54","0","54","0","NA","54","0","Fri 26 Jul 2019 12:23:59 PM PDT","500","1000","The main experiment item","yes","NA","ABX_v3.osexp","/home/ubuntu/Desktop/panara","yes","no","mono","no","18","no","white","no","yes","768","0","53","/home/ubuntu/Desktop/panara/subject-115.csv","Jazzy James","3.1.3","2.1.5.wav","2.1.3.wav","4.1.3.wav","0","1","space","1","NA","1143","11426","1143","NA","7813","space","2","1024","2","48000","-16","experiment","4.1.3.wav","2.1.5.wav","2.1.3.wav","115","odd","307015","309535","309035","308271","270627","NA","306015","310245","729","NA","NA","306013","311389","305967","306013","8545","NA","306015","732","New experiment","NA","0","0","0","yes","1024"
"undefined","undefined","undefined","undefined","black","no","legacy","0","uniform","undefined","undefined","undefined","55","55","111","55","55","NA","55","55","0","0","0","55","55","0","55","0","NA","55","0","Fri 26 Jul 2019 12:23:59 PM PDT","500","1000","The main experiment item","yes","NA","ABX_v3.osexp","/home/ubuntu/Desktop/panara","no","no","mono","no","18","no","white","no","yes","768","1","53","/home/ubuntu/Desktop/panara/subject-115.csv","Jazzy James","3.1.3","1.2.3.wav","2.2.3.wav","2.2.5.wav","0","1","space","1","NA","423","11426","423","NA","7813","space","2","1024","2","48000","-16","experiment","1.2.3.wav","2.2.5.wav","2.2.3.wav","115","odd","312547","315039","314539","313819","270627","NA","311546","315749","729","NA","NA","311544","316173","305967","311544","8545","NA","311547","732","New experiment","NA","0","0","0","yes","1024"
"undefined","undefined","undefined","undefined","black","no","legacy","0","uniform","undefined","undefined","undefined","56","56","113","56","56","NA","56","56","0","0","0","56","56","0","56","0","NA","56","0","Fri 26 Jul 2019 12:23:59 PM PDT","500","1000","The main experiment item","yes","NA","ABX_v3.osexp","/home/ubuntu/Desktop/panara","no","no","mono","no","18","no","white","no","yes","768","2","53","/home/ubuntu/Desktop/panara/subject-115.csv","Jazzy James","3.1.3","2.1.1.wav","2.1.3.wav","4.1.3.wav","0","1","space","1","NA","454","11426","454","NA","7813","space","2","1024","2","48000","-16","experiment","2.1.1.wav","4.1.3.wav","2.1.3.wav","115","odd","317324","319834","319334","318575","270627","NA","316324","320558","729","NA","NA","316322","321013","305967","316322","8545","NA","316324","732","New experiment","NA","0","0","0","yes","1024"
"undefined","undefined","undefined","undefined","black","no","legacy","0","uniform","undefined","undefined","undefined","57","57","115","57","57","NA","57","57","0","0","0","57","57","0","57","0","NA","57","0","Fri 26 Jul 2019 12:23:59 PM PDT","500","1000","The main experiment item","yes","NA","ABX_v3.osexp","/home/ubuntu/Desktop/panara","yes","no","mono","no","18","no","white","no","yes","768","3","53","/home/ubuntu/Desktop/panara/subject-115.csv","Jazzy James","3.1.3","1.2.5.wav","2.2.5.wav","2.2.3.wav","0","0","space","0","NA","707","11426","707","NA","7813","space","2","1024","2","48000","-16","experiment","2.2.3.wav","1.2.5.wav","2.2.5.wav","115","odd","322191","324698","324198","323484","270627","NA","321190","325417","729","NA","NA","321188","326125","305967","321188","8545","NA","321190","732","New experiment","NA","0","0","0","yes","1024"
"undefined","undefined","undefined","undefined","black","no","legacy","0","uniform","undefined","undefined","undefined","58","58","117","58","58","NA","58","58","0","0","0","58","58","0","58","0","NA","58","0","Fri 26 Jul 2019 12:23:59 PM PDT","500","1000","The main experiment item","yes","NA","ABX_v3.osexp","/home/ubuntu/Desktop/panara","yes","no","mono","no","18","no","white","no","yes","768","4","53","/home/ubuntu/Desktop/panara/subject-115.csv","Jazzy James","3.1.3","3.1.4.wav","3.1.2.wav","4.1.2.wav","0","0","space","0","NA","598","11426","598","NA","7813","space","2","1024","2","48000","-16","experiment","4.1.2.wav","3.1.4.wav","3.1.2.wav","115","odd","327278","329848","329348","328559","270627","NA","326278","330606","729","NA","NA","326275","331205","305967","326275","8545","NA","326278","732","New experiment","NA","0","0","0","yes","1024"
"undefined","undefined","undefined","undefined","black","no","legacy","0","uniform","undefined","undefined","undefined","59","59","119","59","59","NA","59","59","0","0","0","59","59","0","59","0","NA","59","0","Fri 26 Jul 2019 12:23:59 PM PDT","500","1000","The main experiment item","yes","NA","ABX_v3.osexp","/home/ubuntu/Desktop/panara","no","no","mono","no","18","no","white","no","yes","768","5","53","/home/ubuntu/Desktop/panara/subject-115.csv","Jazzy James","3.1.3","3.2.3.wav","3.1.3.wav","3.1.5.wav","0","1","space","1","NA","527","11426","527","NA","7813","space","2","1024","2","48000","-16","experiment","3.2.3.wav","3.1.5.wav","3.1.3.wav","115","odd","332353","334879","334379","333615","270627","NA","331353","335653","729","NA","NA","331350","336181","305967","331350","8545","NA","331353","732","New experiment","NA","0","0","0","yes","1024"
"undefined","undefined","undefined","undefined","black","no","legacy","0","uniform","undefined","undefined","undefined","60","60","121","60","60","NA","60","60","0","0","0","60","60","0","60","0","NA","60","0","Fri 26 Jul 2019 12:23:59 PM PDT","500","1000","The main experiment item","yes","NA","ABX_v3.osexp","/home/ubuntu/Desktop/panara","no","no","mono","no","18","no","white","no","yes","768","6","53","/home/ubuntu/Desktop/panara/subject-115.csv","Jazzy James","3.1.3","2.1.1.wav","2.1.3.wav","2.2.3.wav","0","0","space","0","NA","408","11426","408","NA","7813","space","2","1024","2","48000","-16","experiment","2.1.1.wav","2.2.3.wav","2.1.3.wav","115","odd","337341","339827","339327","338581","270627","NA","336340","340581","729","NA","NA","336338","340990","305967","336338","8545","NA","336341","732","New experiment","NA","0","0","0","yes","1024"
"undefined","undefined","undefined","undefined","black","no","legacy","0","uniform","undefined","undefined","undefined","61","61","123","61","61","NA","61","61","0","0","0","61","61","0","61","0","NA","61","0","Fri 26 Jul 2019 12:23:59 PM PDT","500","1000","The main experiment item","yes","NA","ABX_v3.osexp","/home/ubuntu/Desktop/panara","no","no","mono","no","18","no","white","no","yes","768","7","53","/home/ubuntu/Desktop/panara/subject-115.csv","Jazzy James","3.1.3","4.1.3.wav","3.1.3.wav","3.1.5.wav","0","1","space","1","NA","310","11426","310","NA","7813","space","2","1024","2","48000","-16","experiment","4.1.3.wav","3.1.5.wav","3.1.3.wav","115","odd","342156","344627","344127","343383","270627","NA","341155","345414","729","NA","NA","341153","345725","305967","341153","8545","NA","341156","732","New experiment","NA","0","0","0","yes","1024"
"undefined","undefined","undefined","undefined","black","no","legacy","0","uniform","undefined","undefined","undefined","62","62","125","62","62","NA","62","62","0","0","0","62","62","0","62","0","NA","62","0","Fri 26 Jul 2019 12:23:59 PM PDT","500","1000","The main experiment item","yes","NA","ABX_v3.osexp","/home/ubuntu/Desktop/panara","yes","no","mono","no","18","no","white","no","yes","768","8","53","/home/ubuntu/Desktop/panara/subject-115.csv","Jazzy James","3.1.3","4.1.5.wav","2.1.5.wav","2.1.3.wav","0","0","space","0","NA","248","11426","248","NA","7813","space","2","1024","2","48000","-16","experiment","2.1.3.wav","4.1.5.wav","2.1.5.wav","115","odd","346918","349428","348928","348181","270627","NA","345918","350180","729","NA","NA","345915","350429","305967","345915","8545","NA","345918","732","New experiment","NA","0","0","0","yes","1024"
"undefined","undefined","undefined","undefined","black","no","legacy","0","uniform","undefined","undefined","undefined","63","63","127","63","63","NA","63","63","0","0","0","63","63","0","63","0","NA","63","0","Fri 26 Jul 2019 12:23:59 PM PDT","500","1000","The main experiment item","yes","NA","ABX_v3.osexp","/home/ubuntu/Desktop/panara","no","no","mono","no","18","no","white","no","yes","768","9","53","/home/ubuntu/Desktop/panara/subject-115.csv","Jazzy James","3.1.3","1.1.1.wav","1.1.3.wav","2.1.3.wav","0","1","space","1","NA","734","11426","734","NA","7813","space","2","1024","2","48000","-16","experiment","1.1.1.wav","2.1.3.wav","1.1.3.wav","115","odd","351592","354134","353633","352859","270627","NA","350591","354878","729","NA","NA","350589","355613","305967","350588","8545","NA","350592","732","New experiment","NA","0","0","0","yes","1024"
"undefined","undefined","undefined","undefined","black","no","legacy","0","uniform","undefined","undefined","undefined","64","64","129","64","64","NA","64","64","0","0","0","64","64","0","64","0","NA","64","0","Fri 26 Jul 2019 12:23:59 PM PDT","500","1000","The main experiment item","yes","NA","ABX_v3.osexp","/home/ubuntu/Desktop/panara","yes","no","mono","no","18","no","white","no","yes","768","10","53","/home/ubuntu/Desktop/panara/subject-115.csv","Jazzy James","3.1.3","4.2.3.wav","4.1.3.wav","4.1.1.wav","0","1","space","1","NA","1290","11426","1290","NA","7813","space","2","1024","2","48000","-16","experiment","4.1.1.wav","4.2.3.wav","4.1.3.wav","115","odd","356755","359245","358745","358004","270627","NA","355755","360002","729","NA","NA","355753","361293","305967","355753","8545","NA","355755","732","New experiment","NA","0","0","0","yes","1024"
"undefined","undefined","undefined","undefined","black","no","legacy","0","uniform","undefined","undefined","undefined","65","65","131","65","65","NA","65","65","0","0","0","65","65","0","65","0","NA","65","0","Fri 26 Jul 2019 12:23:59 PM PDT","500","1000","The main experiment item","yes","NA","ABX_v3.osexp","/home/ubuntu/Desktop/panara","yes","no","mono","no","18","no","white","no","yes","768","11","53","/home/ubuntu/Desktop/panara/subject-115.csv","Jazzy James","3.1.3","1.2.3.wav","1.2.1.wav","3.2.1.wav","0","1","space","1","NA","502","11426","502","NA","7813","space","2","1024","2","48000","-16","experiment","3.2.1.wav","1.2.3.wav","1.2.1.wav","115","odd","362465","365021","364521","363738","270627","NA","361464","365766","729","NA","NA","361462","366269","305967","361462","8545","NA","361464","732","New experiment","NA","0","0","0","yes","1024"
"undefined","undefined","undefined","undefined","black","no","legacy","0","uniform","undefined","undefined","undefined","66","66","133","66","66","NA","66","66","0","0","0","66","66","0","66","0","NA","66","0","Fri 26 Jul 2019 12:23:59 PM PDT","500","1000","The main experiment item","yes","NA","ABX_v3.osexp","/home/ubuntu/Desktop/panara","no","no","mono","no","18","no","white","no","yes","768","12","53","/home/ubuntu/Desktop/panara/subject-115.csv","Jazzy James","3.1.3","3.2.3.wav","3.2.5.wav","4.2.5.wav","0","1","space","1","NA","700","11426","700","NA","7813","space","2","1024","2","48000","-16","experiment","3.2.3.wav","4.2.5.wav","3.2.5.wav","115","odd","367501","370009","369509","368739","270627","NA","366500","370776","729","NA","NA","366498","371477","305967","366498","8545","NA","366500","732","New experiment","NA","0","0","0","yes","1024"
"undefined","undefined","undefined","undefined","black","no","legacy","0","uniform","undefined","undefined","undefined","67","67","135","67","67","NA","67","67","0","0","0","67","67","0","67","0","NA","67","0","Fri 26 Jul 2019 12:23:59 PM PDT","500","1000","The main experiment item","yes","NA","ABX_v3.osexp","/home/ubuntu/Desktop/panara","yes","no","mono","no","18","no","white","no","yes","768","13","53","/home/ubuntu/Desktop/panara/subject-115.csv","Jazzy James","3.1.3","1.1.3.wav","2.1.3.wav","2.1.1.wav","0","0","space","0","NA","2412","11426","2412","NA","7813","space","2","1024","2","48000","-16","experiment","2.1.1.wav","1.1.3.wav","2.1.3.wav","115","odd","372657","375202","374702","373958","270627","NA","371657","375960","729","NA","NA","371654","378373","305967","371654","8545","NA","371657","732","New experiment","NA","0","0","0","yes","1024"
"undefined","undefined","undefined","undefined","black","no","legacy","0","uniform","undefined","undefined","undefined","68","68","137","68","68","NA","68","68","0","0","0","68","68","0","68","0","NA","68","0","Fri 26 Jul 2019 12:23:59 PM PDT","500","1000","The main experiment item","yes","NA","ABX_v3.osexp","/home/ubuntu/Desktop/panara","yes","no","mono","no","18","no","white","no","yes","768","14","53","/home/ubuntu/Desktop/panara/subject-115.csv","Jazzy James","3.1.3","2.2.5.wav","2.2.3.wav","4.2.3.wav","0","0","space","0","NA","724","11426","724","NA","7813","space","2","1024","2","48000","-16","experiment","4.2.3.wav","2.2.5.wav","2.2.3.wav","115","odd","379559","382005","381505","380780","270627","NA","378559","382744","729","NA","NA","378557","383469","305967","378557","8545","NA","378559","732","New experiment","NA","0","0","0","yes","1024"
"undefined","undefined","undefined","undefined","black","no","legacy","0","uniform","undefined","undefined","undefined","69","69","139","69","69","NA","69","69","0","0","0","69","69","0","69","0","NA","69","0","Fri 26 Jul 2019 12:23:59 PM PDT","500","1000","The main experiment item","yes","NA","ABX_v3.osexp","/home/ubuntu/Desktop/panara","no","no","mono","no","18","no","white","no","yes","768","15","53","/home/ubuntu/Desktop/panara/subject-115.csv","Jazzy James","3.1.3","2.2.3.wav","2.2.5.wav","2.1.5.wav","0","1","space","1","NA","245","11426","245","NA","7813","space","2","1024","2","48000","-16","experiment","2.2.3.wav","2.1.5.wav","2.2.5.wav","115","odd","384621","387060","386560","385845","270627","NA","383621","387799","729","NA","NA","383619","388045","305967","383618","8545","NA","383621","732","New experiment","NA","0","0","0","yes","1024"
"undefined","undefined","undefined","undefined","black","no","legacy","0","uniform","undefined","undefined","undefined","70","70","141","70","70","NA","70","70","0","0","0","70","70","0","70","0","NA","70","0","Fri 26 Jul 2019 12:23:59 PM PDT","500","1000","The main experiment item","yes","NA","ABX_v3.osexp","/home/ubuntu/Desktop/panara","yes","no","mono","no","18","no","white","no","yes","768","16","53","/home/ubuntu/Desktop/panara/subject-115.csv","Jazzy James","3.1.3","3.1.4.wav","3.1.2.wav","3.2.2.wav","0","1","space","1","NA","336","11426","336","NA","7813","space","2","1024","2","48000","-16","experiment","3.2.2.wav","3.1.4.wav","3.1.2.wav","115","odd","389208","391773","391273","390507","270627","NA","388208","392548","729","NA","NA","388205","392885","305967","388205","8545","NA","388208","732","New experiment","NA","0","0","0","yes","1024"
"undefined","undefined","undefined","undefined","black","no","legacy","0","uniform","undefined","undefined","undefined","71","71","143","71","71","NA","71","71","0","0","0","71","71","0","71","0","NA","71","0","Fri 26 Jul 2019 12:23:59 PM PDT","500","1000","The main experiment item","yes","NA","ABX_v3.osexp","/home/ubuntu/Desktop/panara","no","no","mono","no","18","no","white","no","yes","768","17","53","/home/ubuntu/Desktop/panara/subject-115.csv","Jazzy James","3.1.3","2.1.3.wav","1.1.3.wav","1.1.5.wav","0","1","space","1","NA","427","11426","427","NA","7813","space","2","1024","2","48000","-16","experiment","2.1.3.wav","1.1.5.wav","1.1.3.wav","115","odd","394087","396608","396108","395315","270627","NA","393087","397376","729","NA","NA","393085","397803","305967","393085","8545","NA","393087","732","New experiment","NA","0","0","0","yes","1024"
"undefined","undefined","undefined","undefined","black","no","legacy","0","uniform","undefined","undefined","undefined","72","72","145","72","72","NA","72","72","0","0","0","72","72","0","72","0","NA","72","0","Fri 26 Jul 2019 12:23:59 PM PDT","500","1000","The main experiment item","yes","NA","ABX_v3.osexp","/home/ubuntu/Desktop/panara","no","no","mono","no","18","no","white","no","yes","768","18","53","/home/ubuntu/Desktop/panara/subject-115.csv","Jazzy James","3.1.3","4.2.2.wav","3.2.2.wav","3.2.4.wav","0","1","space","1","NA","465","11426","465","NA","7813","space","2","1024","2","48000","-16","experiment","4.2.2.wav","3.2.4.wav","3.2.2.wav","115","odd","398980","401500","401000","400233","270627","NA","397980","402257","729","NA","NA","397978","402723","305967","397978","8545","NA","397980","732","New experiment","NA","0","0","0","yes","1024"
"undefined","undefined","undefined","undefined","black","no","legacy","0","uniform","undefined","undefined","undefined","73","73","147","73","73","NA","73","73","0","0","0","73","73","0","73","0","NA","73","0","Fri 26 Jul 2019 12:23:59 PM PDT","500","1000","The main experiment item","yes","NA","ABX_v3.osexp","/home/ubuntu/Desktop/panara","yes","no","mono","no","18","no","white","no","yes","768","19","53","/home/ubuntu/Desktop/panara/subject-115.csv","Jazzy James","3.1.3","3.2.4.wav","1.2.4.wav","1.2.2.wav","0","0","space","0","NA","141","11426","141","NA","7813","space","2","1024","2","48000","-16","experiment","1.2.2.wav","3.2.4.wav","1.2.4.wav","115","odd","403899","406382","405882","405131","270627","NA","402899","407148","729","NA","NA","402896","407290","305967","402896","8545","NA","402899","732","New experiment","NA","0","0","0","yes","1024"
"undefined","undefined","undefined","undefined","black","no","legacy","0","uniform","undefined","undefined","undefined","74","74","149","74","74","NA","74","74","0","0","0","74","74","0","74","0","NA","74","0","Fri 26 Jul 2019 12:23:59 PM PDT","500","1000","The main experiment item","yes","NA","ABX_v3.osexp","/home/ubuntu/Desktop/panara","no","no","mono","no","18","no","white","no","yes","768","20","53","/home/ubuntu/Desktop/panara/subject-115.csv","Jazzy James","3.1.3","4.2.2.wav","2.2.2.wav","2.2.4.wav","0","1","space","1","NA","389","11426","389","NA","7813","space","2","1024","2","48000","-16","experiment","4.2.2.wav","2.2.4.wav","2.2.2.wav","115","odd","408470","410946","410446","409735","270627","NA","407470","411660","729","NA","NA","407467","412049","305967","407467","8545","NA","407470","732","New experiment","NA","0","0","0","yes","1024"
"undefined","undefined","undefined","undefined","black","no","legacy","0","uniform","undefined","undefined","undefined","75","75","151","75","75","NA","75","75","0","0","0","75","75","0","75","0","NA","75","0","Fri 26 Jul 2019 12:23:59 PM PDT","500","1000","The main experiment item","yes","NA","ABX_v3.osexp","/home/ubuntu/Desktop/panara","no","no","mono","no","18","no","white","no","yes","768","21","53","/home/ubuntu/Desktop/panara/subject-115.csv","Jazzy James","3.1.3","3.1.3.wav","3.1.5.wav","3.2.5.wav","0","1","space","1","NA","430","11426","430","NA","7813","space","2","1024","2","48000","-16","experiment","3.1.3.wav","3.2.5.wav","3.1.5.wav","115","odd","413208","415750","415250","414466","270627","NA","412208","416523","729","NA","NA","412206","416954","305967","412206","8545","NA","412208","732","New experiment","NA","0","0","0","yes","1024"
"undefined","undefined","undefined","undefined","black","no","legacy","0","uniform","undefined","undefined","undefined","76","76","153","76","76","NA","76","76","0","0","0","76","76","0","76","0","NA","76","0","Fri 26 Jul 2019 12:23:59 PM PDT","500","1000","The main experiment item","yes","NA","ABX_v3.osexp","/home/ubuntu/Desktop/panara","no","no","mono","no","18","no","white","no","yes","768","22","53","/home/ubuntu/Desktop/panara/subject-115.csv","Jazzy James","3.1.3","4.1.1.wav","4.1.3.wav","3.1.3.wav","0","1","space","1","NA","559","11426","559","NA","7813","space","2","1024","2","48000","-16","experiment","4.1.1.wav","3.1.3.wav","4.1.3.wav","115","odd","418142","420615","420115","419381","270627","NA","417141","421370","729","NA","NA","417139","421929","305967","417139","8545","NA","417142","732","New experiment","NA","0","0","0","yes","1024"
"undefined","undefined","undefined","undefined","black","no","legacy","0","uniform","undefined","undefined","undefined","77","77","155","77","77","NA","77","77","0","0","0","77","77","0","77","0","NA","77","0","Fri 26 Jul 2019 12:23:59 PM PDT","500","1000","The main experiment item","yes","NA","ABX_v3.osexp","/home/ubuntu/Desktop/panara","yes","no","mono","no","18","no","white","no","yes","768","23","53","/home/ubuntu/Desktop/panara/subject-115.csv","Jazzy James","3.1.3","4.2.3.wav","2.2.3.wav","2.2.1.wav","0","0","space","0","NA","703","11426","703","NA","7813","space","2","1024","2","48000","-16","experiment","2.2.1.wav","4.2.3.wav","2.2.3.wav","115","odd","423106","425582","425082","424370","270627","NA","422105","426297","729","NA","NA","422102","427000","305967","422102","8545","NA","422106","732","New experiment","NA","0","0","0","yes","1024"
"undefined","undefined","undefined","undefined","black","no","legacy","0","uniform","undefined","undefined","undefined","78","78","157","78","78","NA","78","78","0","0","0","78","78","0","78","0","NA","78","0","Fri 26 Jul 2019 12:23:59 PM PDT","500","1000","The main experiment item","yes","NA","ABX_v3.osexp","/home/ubuntu/Desktop/panara","yes","no","mono","no","18","no","white","no","yes","768","24","53","/home/ubuntu/Desktop/panara/subject-115.csv","Jazzy James","3.1.3","2.1.4.wav","1.1.4.wav","1.1.2.wav","0","1","space","1","NA","330","11426","330","NA","7813","space","2","1024","2","48000","-16","experiment","1.1.2.wav","2.1.4.wav","1.1.4.wav","115","odd","428162","430677","430177","429415","270627","NA","427162","431485","729","NA","NA","427159","431815","305967","427159","8545","NA","427162","732","New experiment","NA","0","0","0","yes","1024"
"undefined","undefined","undefined","undefined","black","no","legacy","0","uniform","undefined","undefined","undefined","79","79","159","79","79","NA","79","79","0","0","0","79","79","0","79","0","NA","79","0","Fri 26 Jul 2019 12:23:59 PM PDT","500","1000","The main experiment item","yes","NA","ABX_v3.osexp","/home/ubuntu/Desktop/panara","no","no","mono","no","18","no","white","no","yes","768","25","53","/home/ubuntu/Desktop/panara/subject-115.csv","Jazzy James","3.1.3","1.1.3.wav","3.1.3.wav","3.1.5.wav","0","0","space","0","NA","252","11426","252","NA","7813","space","2","1024","2","48000","-16","experiment","1.1.3.wav","3.1.5.wav","3.1.3.wav","115","odd","432977","435549","435049","434304","270627","NA","431977","436322","729","NA","NA","431975","436575","305967","431975","8545","NA","431977","732","New experiment","NA","0","0","0","yes","1024"
"undefined","undefined","undefined","undefined","black","no","legacy","0","uniform","undefined","undefined","undefined","80","80","161","80","80","NA","80","80","0","0","0","80","80","0","80","0","NA","80","0","Fri 26 Jul 2019 12:23:59 PM PDT","500","1000","The main experiment item","yes","NA","ABX_v3.osexp","/home/ubuntu/Desktop/panara","no","no","mono","no","18","no","white","no","yes","768","26","53","/home/ubuntu/Desktop/panara/subject-115.csv","Jazzy James","3.1.3","3.1.1.wav","3.1.3.wav","1.1.3.wav","0","1","space","1","NA","198","11426","198","NA","7813","space","2","1024","2","48000","-16","experiment","3.1.1.wav","1.1.3.wav","3.1.3.wav","115","odd","437748","440255","439755","439004","270627","NA","436748","441032","729","NA","NA","436746","441230","305967","436746","8545","NA","436748","732","New experiment","NA","0","0","0","yes","1024"
"undefined","undefined","undefined","undefined","black","no","legacy","0","uniform","undefined","undefined","undefined","81","81","163","81","81","NA","81","81","0","0","0","81","81","0","81","0","NA","81","0","Fri 26 Jul 2019 12:23:59 PM PDT","500","1000","The main experiment item","yes","NA","ABX_v3.osexp","/home/ubuntu/Desktop/panara","no","no","mono","no","18","no","white","no","yes","768","27","53","/home/ubuntu/Desktop/panara/subject-115.csv","Jazzy James","3.1.3","1.1.2.wav","3.1.2.wav","3.1.4.wav","0","0","space","0","NA","517","11426","517","NA","7813","space","2","1024","2","48000","-16","experiment","1.1.2.wav","3.1.4.wav","3.1.2.wav","115","odd","442388","444995","444495","443715","270627","NA","441387","445768","729","NA","NA","441385","446286","305967","441385","8545","NA","441388","732","New experiment","NA","0","0","0","yes","1024"
"undefined","undefined","undefined","undefined","black","no","legacy","0","uniform","undefined","undefined","undefined","82","82","165","82","82","NA","82","82","0","0","0","82","82","0","82","0","NA","82","0","Fri 26 Jul 2019 12:23:59 PM PDT","500","1000","The main experiment item","yes","NA","ABX_v3.osexp","/home/ubuntu/Desktop/panara","no","no","mono","no","18","no","white","no","yes","768","28","53","/home/ubuntu/Desktop/panara/subject-115.csv","Jazzy James","3.1.3","2.1.2.wav","2.1.4.wav","1.1.4.wav","0","1","space","1","NA","463","11426","463","NA","7813","space","2","1024","2","48000","-16","experiment","2.1.2.wav","1.1.4.wav","2.1.4.wav","115","odd","447458","449997","449497","448722","270627","NA","446458","450790","729","NA","NA","446456","451253","305967","446455","8545","NA","446458","732","New experiment","NA","0","0","0","yes","1024"
"undefined","undefined","undefined","undefined","black","no","legacy","0","uniform","undefined","undefined","undefined","83","83","167","83","83","NA","83","83","0","0","0","83","83","0","83","0","NA","83","0","Fri 26 Jul 2019 12:23:59 PM PDT","500","1000","The main experiment item","yes","NA","ABX_v3.osexp","/home/ubuntu/Desktop/panara","no","no","mono","no","18","no","white","no","yes","768","29","53","/home/ubuntu/Desktop/panara/subject-115.csv","Jazzy James","3.1.3","1.2.3.wav","3.2.3.wav","3.2.5.wav","0","1","space","1","NA","292","11426","292","NA","7813","space","2","1024","2","48000","-16","experiment","1.2.3.wav","3.2.5.wav","3.2.3.wav","115","odd","452427","454978","454478","453712","270627","NA","451427","455752","729","NA","NA","451424","456045","305967","451424","8545","NA","451427","732","New experiment","NA","0","0","0","yes","1024"
"undefined","undefined","undefined","undefined","black","no","legacy","0","uniform","undefined","undefined","undefined","84","84","169","84","84","NA","84","84","0","0","0","84","84","0","84","0","NA","84","0","Fri 26 Jul 2019 12:23:59 PM PDT","500","1000","The main experiment item","yes","NA","ABX_v3.osexp","/home/ubuntu/Desktop/panara","no","no","mono","no","18","no","white","no","yes","768","30","53","/home/ubuntu/Desktop/panara/subject-115.csv","Jazzy James","3.1.3","4.1.2.wav","4.1.4.wav","4.2.4.wav","0","0","space","0","NA","476","11426","476","NA","7813","space","2","1024","2","48000","-16","experiment","4.1.2.wav","4.2.4.wav","4.1.4.wav","115","odd","457212","459644","459144","458435","270627","NA","456212","460368","729","NA","NA","456210","460844","305967","456210","8545","NA","456212","732","New experiment","NA","0","0","0","yes","1024"
"undefined","undefined","undefined","undefined","black","no","legacy","0","uniform","undefined","undefined","undefined","85","85","171","85","85","NA","85","85","0","0","0","85","85","0","85","0","NA","85","0","Fri 26 Jul 2019 12:23:59 PM PDT","500","1000","The main experiment item","yes","NA","ABX_v3.osexp","/home/ubuntu/Desktop/panara","no","no","mono","no","18","no","white","no","yes","768","31","53","/home/ubuntu/Desktop/panara/subject-115.csv","Jazzy James","3.1.3","1.2.2.wav","2.2.2.wav","2.2.4.wav","0","0","space","0","NA","651","11426","651","NA","7813","space","2","1024","2","48000","-16","experiment","1.2.2.wav","2.2.4.wav","2.2.2.wav","115","odd","462017","464513","464013","463292","270627","NA","461016","465225","729","NA","NA","461014","465877","305967","461013","8545","NA","461017","732","New experiment","NA","0","0","0","yes","1024"
"undefined","undefined","undefined","undefined","black","no","legacy","0","uniform","undefined","undefined","undefined","86","86","173","86","86","NA","86","86","0","0","0","86","86","0","86","0","NA","86","0","Fri 26 Jul 2019 12:23:59 PM PDT","500","1000","The main experiment item","yes","NA","ABX_v3.osexp","/home/ubuntu/Desktop/panara","no","no","mono","no","18","no","white","no","yes","768","32","53","/home/ubuntu/Desktop/panara/subject-115.csv","Jazzy James","3.1.3","2.1.3.wav","2.1.5.wav","1.1.5.wav","0","1","space","1","NA","2557","11426","2557","NA","7813","space","2","1024","2","48000","-16","experiment","2.1.3.wav","1.1.5.wav","2.1.5.wav","115","odd","467033","469525","469025","468289","270627","NA","466033","470302","729","NA","NA","466031","472860","305967","466031","8545","NA","466033","732","New experiment","NA","0","0","0","yes","1024"
"undefined","undefined","undefined","undefined","black","no","legacy","0","uniform","undefined","undefined","undefined","87","87","175","87","87","NA","87","87","0","0","0","87","87","0","87","0","NA","87","0","Fri 26 Jul 2019 12:23:59 PM PDT","500","1000","The main experiment item","yes","NA","ABX_v3.osexp","/home/ubuntu/Desktop/panara","yes","no","mono","no","18","no","white","no","yes","768","33","53","/home/ubuntu/Desktop/panara/subject-115.csv","Jazzy James","3.1.3","4.1.4.wav","4.1.2.wav","4.2.2.wav","0","0","space","0","NA","761","11426","761","NA","7813","space","2","1024","2","48000","-16","experiment","4.2.2.wav","4.1.4.wav","4.1.2.wav","115","odd","474040","476473","475973","475260","270627","NA","473040","477194","729","NA","NA","473037","477956","305967","473037","8545","NA","473040","732","New experiment","NA","0","0","0","yes","1024"
"undefined","undefined","undefined","undefined","black","no","legacy","0","uniform","undefined","undefined","undefined","88","88","177","88","88","NA","88","88","0","0","0","88","88","0","88","0","NA","88","0","Fri 26 Jul 2019 12:23:59 PM PDT","500","1000","The main experiment item","yes","NA","ABX_v3.osexp","/home/ubuntu/Desktop/panara","no","no","mono","no","18","no","white","no","yes","768","34","53","/home/ubuntu/Desktop/panara/subject-115.csv","Jazzy James","3.1.3","3.1.3.wav","3.1.5.wav","1.1.5.wav","0","1","space","1","NA","683","11426","683","NA","7813","space","2","1024","2","48000","-16","experiment","3.1.3.wav","1.1.5.wav","3.1.5.wav","115","odd","479128","481655","481155","480385","270627","NA","478128","482447","729","NA","NA","478126","483131","305967","478126","8545","NA","478128","732","New experiment","NA","0","0","0","yes","1024"
"undefined","undefined","undefined","undefined","black","no","legacy","0","uniform","undefined","undefined","undefined","89","89","179","89","89","NA","89","89","0","0","0","89","89","0","89","0","NA","89","0","Fri 26 Jul 2019 12:23:59 PM PDT","500","1000","The main experiment item","yes","NA","ABX_v3.osexp","/home/ubuntu/Desktop/panara","no","no","mono","no","18","no","white","no","yes","768","35","53","/home/ubuntu/Desktop/panara/subject-115.csv","Jazzy James","3.1.3","1.2.1.wav","3.2.1.wav","3.2.3.wav","0","0","space","0","NA","728","11426","728","NA","7813","space","2","1024","2","48000","-16","experiment","1.2.1.wav","3.2.3.wav","3.2.1.wav","115","odd","484297","486843","486343","485582","270627","NA","483297","487578","729","NA","NA","483294","488306","305967","483294","8545","NA","483297","732","New experiment","NA","0","0","0","yes","1024"
"undefined","undefined","undefined","undefined","black","no","legacy","0","uniform","undefined","undefined","undefined","90","90","181","90","90","NA","90","90","0","0","0","90","90","0","90","0","NA","90","0","Fri 26 Jul 2019 12:23:59 PM PDT","500","1000","The main experiment item","yes","NA","ABX_v3.osexp","/home/ubuntu/Desktop/panara","no","no","mono","no","18","no","white","no","yes","768","36","53","/home/ubuntu/Desktop/panara/subject-115.csv","Jazzy James","3.1.3","2.2.2.wav","2.2.4.wav","2.1.4.wav","0","0","space","0","NA","490","11426","490","NA","7813","space","2","1024","2","48000","-16","experiment","2.2.2.wav","2.1.4.wav","2.2.4.wav","115","odd","489450","491920","491420","490704","270627","NA","488450","492663","729","NA","NA","488448","493154","305967","488448","8545","NA","488450","732","New experiment","NA","0","0","0","yes","1024"
"undefined","undefined","undefined","undefined","black","no","legacy","0","uniform","undefined","undefined","undefined","91","91","183","91","91","NA","91","91","0","0","0","91","91","0","91","0","NA","91","0","Fri 26 Jul 2019 12:23:59 PM PDT","500","1000","The main experiment item","yes","NA","ABX_v3.osexp","/home/ubuntu/Desktop/panara","no","no","mono","no","18","no","white","no","yes","768","37","53","/home/ubuntu/Desktop/panara/subject-115.csv","Jazzy James","3.1.3","1.2.3.wav","1.2.5.wav","1.1.5.wav","0","0","space","0","NA","247","11426","247","NA","7813","space","2","1024","2","48000","-16","experiment","1.2.3.wav","1.1.5.wav","1.2.5.wav","115","odd","494314","496872","496372","495587","270627","NA","493313","497659","729","NA","NA","493311","497907","305967","493310","8545","NA","493314","732","New experiment","NA","0","0","0","yes","1024"
"undefined","undefined","undefined","undefined","black","no","legacy","0","uniform","undefined","undefined","undefined","92","92","185","92","92","NA","92","92","0","0","0","92","92","0","92","0","NA","92","0","Fri 26 Jul 2019 12:23:59 PM PDT","500","1000","The main experiment item","yes","NA","ABX_v3.osexp","/home/ubuntu/Desktop/panara","no","no","mono","no","18","no","white","no","yes","768","38","53","/home/ubuntu/Desktop/panara/subject-115.csv","Jazzy James","3.1.3","3.1.2.wav","3.1.4.wav","3.2.4.wav","0","1","space","1","NA","426","11426","426","NA","7813","space","2","1024","2","48000","-16","experiment","3.1.2.wav","3.2.4.wav","3.1.4.wav","115","odd","499070","501651","501151","500369","270627","NA","498069","502391","729","NA","NA","498066","502817","305967","498066","8545","NA","498070","732","New experiment","NA","0","0","0","yes","1024"
"undefined","undefined","undefined","undefined","black","no","legacy","0","uniform","undefined","undefined","undefined","93","93","187","93","93","NA","93","93","0","0","0","93","93","0","93","0","NA","93","0","Fri 26 Jul 2019 12:23:59 PM PDT","500","1000","The main experiment item","yes","NA","ABX_v3.osexp","/home/ubuntu/Desktop/panara","yes","no","mono","no","18","no","white","no","yes","768","39","53","/home/ubuntu/Desktop/panara/subject-115.csv","Jazzy James","3.1.3","4.2.5.wav","2.2.5.wav","2.2.3.wav","0","0","space","0","NA","175","11426","175","NA","7813","space","2","1024","2","48000","-16","experiment","2.2.3.wav","4.2.5.wav","2.2.5.wav","115","odd","503982","506447","505947","505235","270627","NA","502982","507169","729","NA","NA","502979","507345","305967","502979","8545","NA","502982","732","New experiment","NA","0","0","0","yes","1024"
"undefined","undefined","undefined","undefined","black","no","legacy","0","uniform","undefined","undefined","undefined","94","94","189","94","94","NA","94","94","0","0","0","94","94","0","94","0","NA","94","0","Fri 26 Jul 2019 12:23:59 PM PDT","500","1000","The main experiment item","yes","NA","ABX_v3.osexp","/home/ubuntu/Desktop/panara","yes","no","mono","no","18","no","white","no","yes","768","40","53","/home/ubuntu/Desktop/panara/subject-115.csv","Jazzy James","3.1.3","2.2.3.wav","4.2.3.wav","4.2.1.wav","0","0","space","0","NA","224","11426","224","NA","7813","space","2","1024","2","48000","-16","experiment","4.2.1.wav","2.2.3.wav","4.2.3.wav","115","odd","508520","511010","510510","509775","270627","NA","507519","511776","729","NA","NA","507517","512001","305967","507517","8545","NA","507519","732","New experiment","NA","0","0","0","yes","1024"
"undefined","undefined","undefined","undefined","black","no","legacy","0","uniform","undefined","undefined","undefined","95","95","191","95","95","NA","95","95","0","0","0","95","95","0","95","0","NA","95","0","Fri 26 Jul 2019 12:23:59 PM PDT","500","1000","The main experiment item","yes","NA","ABX_v3.osexp","/home/ubuntu/Desktop/panara","yes","no","mono","no","18","no","white","no","yes","768","41","53","/home/ubuntu/Desktop/panara/subject-115.csv","Jazzy James","3.1.3","3.2.5.wav","3.2.3.wav","3.1.3.wav","0","1","space","1","NA","289","11426","289","NA","7813","space","2","1024","2","48000","-16","experiment","3.1.3.wav","3.2.5.wav","3.2.3.wav","115","odd","513141","515663","515163","514421","270627","NA","512140","516399","729","NA","NA","512138","516688","305967","512138","8545","NA","512141","732","New experiment","NA","0","0","0","yes","1024"
"undefined","undefined","undefined","undefined","black","no","legacy","0","uniform","undefined","undefined","undefined","96","96","193","96","96","NA","96","96","0","0","0","96","96","0","96","0","NA","96","0","Fri 26 Jul 2019 12:23:59 PM PDT","500","1000","The main experiment item","yes","NA","ABX_v3.osexp","/home/ubuntu/Desktop/panara","no","no","mono","no","18","no","white","no","yes","768","42","53","/home/ubuntu/Desktop/panara/subject-115.csv","Jazzy James","3.1.3","3.1.2.wav","1.1.2.wav","1.1.4.wav","0","0","space","0","NA","429","11426","429","NA","7813","space","2","1024","2","48000","-16","experiment","3.1.2.wav","1.1.4.wav","1.1.2.wav","115","odd","517854","520438","519938","519121","270627","NA","516853","521219","729","NA","NA","516851","521648","305967","516851","8545","NA","516854","732","New experiment","NA","0","0","0","yes","1024"
"undefined","undefined","undefined","undefined","black","no","legacy","0","uniform","undefined","undefined","undefined","97","97","195","97","97","NA","97","97","0","0","0","97","97","0","97","0","NA","97","0","Fri 26 Jul 2019 12:23:59 PM PDT","500","1000","The main experiment item","yes","NA","ABX_v3.osexp","/home/ubuntu/Desktop/panara","yes","no","mono","no","18","no","white","no","yes","768","43","53","/home/ubuntu/Desktop/panara/subject-115.csv","Jazzy James","3.1.3","1.2.3.wav","1.2.1.wav","2.2.1.wav","0","0","space","0","NA","632","11426","632","NA","7813","space","2","1024","2","48000","-16","experiment","2.2.1.wav","1.2.3.wav","1.2.1.wav","115","odd","522807","525374","524874","524084","270627","NA","521806","526087","729","NA","NA","521804","526720","305967","521804","8545","NA","521807","732","New experiment","NA","0","0","0","yes","1024"
"undefined","undefined","undefined","undefined","black","no","legacy","0","uniform","undefined","undefined","undefined","98","98","197","98","98","NA","98","98","0","0","0","98","98","0","98","0","NA","98","0","Fri 26 Jul 2019 12:23:59 PM PDT","500","1000","The main experiment item","yes","NA","ABX_v3.osexp","/home/ubuntu/Desktop/panara","yes","no","mono","no","18","no","white","no","yes","768","44","53","/home/ubuntu/Desktop/panara/subject-115.csv","Jazzy James","3.1.3","3.2.4.wav","4.2.4.wav","4.2.2.wav","0","0","space","0","NA","1001","11426","1001","NA","7813","space","2","1024","2","48000","-16","experiment","4.2.2.wav","3.2.4.wav","4.2.4.wav","115","odd","527877","530355","529855","529105","270627","NA","526877","531078","729","NA","NA","526875","532080","305967","526875","8545","NA","526877","732","New experiment","NA","0","0","0","yes","1024"
"undefined","undefined","undefined","undefined","black","no","legacy","0","uniform","undefined","undefined","undefined","99","99","199","99","99","NA","99","99","0","0","0","99","99","0","99","0","NA","99","0","Fri 26 Jul 2019 12:23:59 PM PDT","500","1000","The main experiment item","yes","NA","ABX_v3.osexp","/home/ubuntu/Desktop/panara","yes","no","mono","no","18","no","white","no","yes","768","45","53","/home/ubuntu/Desktop/panara/subject-115.csv","Jazzy James","3.1.3","2.2.5.wav","2.1.5.wav","2.1.3.wav","0","1","space","1","NA","342","11426","342","NA","7813","space","2","1024","2","48000","-16","experiment","2.1.3.wav","2.2.5.wav","2.1.5.wav","115","odd","533263","535761","535260","534515","270627","NA","532262","536513","729","NA","NA","532260","536855","305967","532260","8545","NA","532262","732","New experiment","NA","0","0","0","yes","1024"
"undefined","undefined","undefined","undefined","black","no","legacy","0","uniform","undefined","undefined","undefined","100","100","201","100","100","NA","100","100","0","0","0","100","100","0","100","0","NA","100","0","Fri 26 Jul 2019 12:23:59 PM PDT","500","1000","The main experiment item","yes","NA","ABX_v3.osexp","/home/ubuntu/Desktop/panara","no","no","mono","no","18","no","white","no","yes","768","46","53","/home/ubuntu/Desktop/panara/subject-115.csv","Jazzy James","3.1.3","2.2.1.wav","2.1.1.wav","2.1.3.wav","0","1","space","1","NA","703","1819","703","NA","7813","space","2","1024","2","48000","-16","experiment","2.2.1.wav","2.1.3.wav","2.1.1.wav","115","odd","539826","542323","541823","541072","537004","NA","538826","543071","729","NA","NA","537001","543775","305967","537001","8545","NA","538826","732","New experiment","NA","0","0","0","yes","1024"
"undefined","undefined","undefined","undefined","black","no","legacy","0","uniform","undefined","undefined","undefined","101","101","203","101","101","NA","101","101","0","0","0","101","101","0","101","0","NA","101","0","Fri 26 Jul 2019 12:23:59 PM PDT","500","1000","The main experiment item","yes","NA","ABX_v3.osexp","/home/ubuntu/Desktop/panara","yes","no","mono","no","18","no","white","no","yes","768","47","53","/home/ubuntu/Desktop/panara/subject-115.csv","Jazzy James","3.1.3","1.2.5.wav","1.2.3.wav","1.1.3.wav","0","0","space","0","NA","1510","1819","1510","NA","7813","space","2","1024","2","48000","-16","experiment","1.1.3.wav","1.2.5.wav","1.2.3.wav","115","odd","544953","547490","546990","546211","537004","NA","543953","548296","729","NA","NA","543950","549807","305967","543950","8545","NA","543953","732","New experiment","NA","0","0","0","yes","1024"
"undefined","undefined","undefined","undefined","black","no","legacy","0","uniform","undefined","undefined","undefined","102","102","205","102","102","NA","102","102","0","0","0","102","102","0","102","0","NA","102","0","Fri 26 Jul 2019 12:23:59 PM PDT","500","1000","The main experiment item","yes","NA","ABX_v3.osexp","/home/ubuntu/Desktop/panara","no","no","mono","no","18","no","white","no","yes","768","48","53","/home/ubuntu/Desktop/panara/subject-115.csv","Jazzy James","3.1.3","4.1.1.wav","4.2.1.wav","4.2.3.wav","0","0","space","0","NA","571","1819","571","NA","7813","space","2","1024","2","48000","-16","experiment","4.1.1.wav","4.2.3.wav","4.2.1.wav","115","odd","550960","553393","552893","552169","537004","NA","549960","554147","729","NA","NA","549957","554719","305967","549957","8545","NA","549960","732","New experiment","NA","0","0","0","yes","1024"
"undefined","undefined","undefined","undefined","black","no","legacy","0","uniform","undefined","undefined","undefined","103","103","207","103","103","NA","103","103","0","0","0","103","103","0","103","0","NA","103","0","Fri 26 Jul 2019 12:23:59 PM PDT","500","1000","The main experiment item","yes","NA","ABX_v3.osexp","/home/ubuntu/Desktop/panara","yes","no","mono","no","18","no","white","no","yes","768","49","53","/home/ubuntu/Desktop/panara/subject-115.csv","Jazzy James","3.1.3","2.2.4.wav","2.2.2.wav","2.1.2.wav","0","1","space","1","NA","2737","1819","2737","NA","7813","space","2","1024","2","48000","-16","experiment","2.1.2.wav","2.2.4.wav","2.2.2.wav","115","odd","555890","558357","557857","557138","537004","NA","554889","559108","729","NA","NA","554886","561846","305967","554886","8545","NA","554889","732","New experiment","NA","0","0","0","yes","1024"
"undefined","undefined","undefined","undefined","black","no","legacy","0","uniform","undefined","undefined","undefined","104","104","209","104","104","NA","104","104","0","0","0","104","104","0","104","0","NA","104","0","Fri 26 Jul 2019 12:23:59 PM PDT","500","1000","The main experiment item","yes","NA","ABX_v3.osexp","/home/ubuntu/Desktop/panara","no","no","mono","no","18","no","white","no","yes","768","50","53","/home/ubuntu/Desktop/panara/subject-115.csv","Jazzy James","3.1.3","4.1.3.wav","4.1.5.wav","2.1.5.wav","0","1","space","1","NA","1011","1819","1011","NA","7813","space","2","1024","2","48000","-16","experiment","4.1.3.wav","2.1.5.wav","4.1.5.wav","115","odd","563009","565481","564981","564228","537004","NA","562008","566234","729","NA","NA","562005","567246","305967","562005","8545","NA","562009","732","New experiment","NA","0","0","0","yes","1024"
"undefined","undefined","undefined","undefined","black","no","legacy","0","uniform","undefined","undefined","undefined","105","105","211","105","105","NA","105","105","0","0","0","105","105","0","105","0","NA","105","0","Fri 26 Jul 2019 12:23:59 PM PDT","500","1000","The main experiment item","yes","NA","ABX_v3.osexp","/home/ubuntu/Desktop/panara","yes","no","mono","no","18","no","white","no","yes","768","51","53","/home/ubuntu/Desktop/panara/subject-115.csv","Jazzy James","3.1.3","1.1.4.wav","3.1.4.wav","3.1.2.wav","0","0","space","0","NA","1110","1819","1110","NA","7813","space","2","1024","2","48000","-16","experiment","3.1.2.wav","1.1.4.wav","3.1.4.wav","115","odd","568420","570985","570485","569710","537004","NA","567420","571768","729","NA","NA","567418","572879","305967","567418","8545","NA","567420","732","New experiment","NA","0","0","0","yes","1024"
"undefined","undefined","undefined","undefined","black","no","legacy","0","uniform","undefined","undefined","undefined","106","106","213","106","106","NA","106","106","0","0","0","106","106","0","106","0","NA","106","0","Fri 26 Jul 2019 12:23:59 PM PDT","500","1000","The main experiment item","yes","NA","ABX_v3.osexp","/home/ubuntu/Desktop/panara","yes","no","mono","no","18","no","white","no","yes","768","52","53","/home/ubuntu/Desktop/panara/subject-115.csv","Jazzy James","3.1.3","4.2.3.wav","3.2.3.wav","3.2.1.wav","0","1","space","1","NA","1196","1819","1196","NA","7813","space","2","1024","2","48000","-16","experiment","3.2.1.wav","4.2.3.wav","3.2.3.wav","115","odd","574044","576559","576059","575308","537004","NA","573044","577313","729","NA","NA","573041","578509","305967","573041","8545","NA","573044","732","New experiment","NA","0","0","0","yes","1024"
"undefined","undefined","undefined","undefined","black","no","legacy","0","uniform","undefined","undefined","undefined","107","107","215","107","107","NA","107","107","0","0","0","107","107","0","107","0","NA","107","0","Fri 26 Jul 2019 12:23:59 PM PDT","500","1000","The main experiment item","yes","NA","ABX_v3.osexp","/home/ubuntu/Desktop/panara","no","no","mono","no","18","no","white","no","yes","768","53","53","/home/ubuntu/Desktop/panara/subject-115.csv","Jazzy James","3.1.3","3.1.1.wav","4.1.1.wav","4.1.3.wav","0","0","space","0","NA","936","1819","936","NA","7813","space","2","1024","2","48000","-16","experiment","3.1.1.wav","4.1.3.wav","4.1.1.wav","115","odd","579690","582184","581684","580932","537004","NA","578689","582909","729","NA","NA","578687","583845","305967","578687","8545","NA","578690","732","New experiment","NA","0","0","0","yes","1024"
"undefined","undefined","undefined","undefined","black","no","legacy","0","uniform","undefined","undefined","undefined","108","108","217","108","108","NA","108","108","0","0","0","108","108","0","108","0","NA","108","0","Fri 26 Jul 2019 12:23:59 PM PDT","500","1000","The main experiment item","yes","NA","ABX_v3.osexp","/home/ubuntu/Desktop/panara","no","no","mono","no","18","no","white","no","yes","768","54","53","/home/ubuntu/Desktop/panara/subject-115.csv","Jazzy James","3.1.3","2.2.1.wav","2.2.3.wav","1.2.3.wav","0","0","space","0","NA","1144","1819","1144","NA","7813","space","2","1024","2","48000","-16","experiment","2.2.1.wav","1.2.3.wav","2.2.3.wav","115","odd","585024","587502","587002","586280","537004","NA","584024","588284","729","NA","NA","584021","589429","305967","584021","8545","NA","584024","732","New experiment","NA","0","0","0","yes","1024"
"undefined","undefined","undefined","undefined","black","no","legacy","0","uniform","undefined","undefined","undefined","109","109","219","109","109","NA","109","109","0","0","0","109","109","0","109","0","NA","109","0","Fri 26 Jul 2019 12:23:59 PM PDT","500","1000","The main experiment item","yes","NA","ABX_v3.osexp","/home/ubuntu/Desktop/panara","yes","no","mono","no","18","no","white","no","yes","768","55","53","/home/ubuntu/Desktop/panara/subject-115.csv","Jazzy James","3.1.3","1.2.5.wav","3.2.5.wav","3.2.3.wav","0","0","space","0","NA","325","1819","325","NA","7813","space","2","1024","2","48000","-16","experiment","3.2.3.wav","1.2.5.wav","3.2.5.wav","115","odd","590601","593155","592655","591884","537004","NA","589601","593911","729","NA","NA","589599","594237","305967","589599","8545","NA","589601","732","New experiment","NA","0","0","0","yes","1024"
"undefined","undefined","undefined","undefined","black","no","legacy","0","uniform","undefined","undefined","undefined","110","110","221","110","110","NA","110","110","0","0","0","110","110","0","110","0","NA","110","0","Fri 26 Jul 2019 12:23:59 PM PDT","500","1000","The main experiment item","yes","NA","ABX_v3.osexp","/home/ubuntu/Desktop/panara","no","no","mono","no","18","no","white","no","yes","768","56","53","/home/ubuntu/Desktop/panara/subject-115.csv","Jazzy James","3.1.3","3.2.1.wav","3.1.1.wav","3.1.3.wav","0","0","space","0","NA","583","1819","583","NA","7813","space","2","1024","2","48000","-16","experiment","3.2.1.wav","3.1.3.wav","3.1.1.wav","115","odd","595402","597912","597412","596668","537004","NA","594402","598645","729","NA","NA","594399","599229","305967","594399","8545","NA","594402","732","New experiment","NA","0","0","0","yes","1024"
"undefined","undefined","undefined","undefined","black","no","legacy","0","uniform","undefined","undefined","undefined","111","111","223","111","111","NA","111","111","0","0","0","111","111","0","111","0","NA","111","0","Fri 26 Jul 2019 12:23:59 PM PDT","500","1000","The main experiment item","yes","NA","ABX_v3.osexp","/home/ubuntu/Desktop/panara","yes","no","mono","no","18","no","white","no","yes","768","57","53","/home/ubuntu/Desktop/panara/subject-115.csv","Jazzy James","3.1.3","2.2.3.wav","1.2.3.wav","1.2.1.wav","0","1","space","1","NA","3046","1819","3046","NA","7813","space","2","1024","2","48000","-16","experiment","1.2.1.wav","2.2.3.wav","1.2.3.wav","115","odd","600410","602920","602420","601640","537004","NA","599410","603702","729","NA","NA","599407","606748","305967","599407","8545","NA","599410","732","New experiment","NA","0","0","0","yes","1024"
"undefined","undefined","undefined","undefined","black","no","legacy","0","uniform","undefined","undefined","undefined","112","112","225","112","112","NA","112","112","0","0","0","112","112","0","112","0","NA","112","0","Fri 26 Jul 2019 12:23:59 PM PDT","500","1000","The main experiment item","yes","NA","ABX_v3.osexp","/home/ubuntu/Desktop/panara","no","no","mono","no","18","no","white","no","yes","768","58","53","/home/ubuntu/Desktop/panara/subject-115.csv","Jazzy James","3.1.3","4.2.1.wav","2.2.1.wav","2.2.3.wav","0","0","space","0","NA","419","1819","419","NA","7813","space","2","1024","2","48000","-16","experiment","4.2.1.wav","2.2.3.wav","2.2.1.wav","115","odd","607908","610392","609892","609170","537004","NA","606907","611104","729","NA","NA","606905","611524","305967","606905","8545","NA","606908","732","New experiment","NA","0","0","0","yes","1024"
"undefined","undefined","undefined","undefined","black","no","legacy","0","uniform","undefined","undefined","undefined","113","113","227","113","113","NA","113","113","0","0","0","113","113","0","113","0","NA","113","0","Fri 26 Jul 2019 12:23:59 PM PDT","500","1000","The main experiment item","yes","NA","ABX_v3.osexp","/home/ubuntu/Desktop/panara","no","no","mono","no","18","no","white","no","yes","768","59","53","/home/ubuntu/Desktop/panara/subject-115.csv","Jazzy James","3.1.3","2.2.3.wav","2.1.3.wav","2.1.5.wav","0","1","space","1","NA","984","1819","984","NA","7813","space","2","1024","2","48000","-16","experiment","2.2.3.wav","2.1.5.wav","2.1.3.wav","115","odd","612711","615185","614685","613932","537004","NA","611711","615940","729","NA","NA","611708","616925","305967","611708","8545","NA","611711","732","New experiment","NA","0","0","0","yes","1024"
"undefined","undefined","undefined","undefined","black","no","legacy","0","uniform","undefined","undefined","undefined","114","114","229","114","114","NA","114","114","0","0","0","114","114","0","114","0","NA","114","0","Fri 26 Jul 2019 12:23:59 PM PDT","500","1000","The main experiment item","yes","NA","ABX_v3.osexp","/home/ubuntu/Desktop/panara","no","no","mono","no","18","no","white","no","yes","768","60","53","/home/ubuntu/Desktop/panara/subject-115.csv","Jazzy James","3.1.3","2.2.3.wav","1.2.3.wav","1.2.5.wav","0","1","space","1","NA","457","1819","457","NA","7813","space","2","1024","2","48000","-16","experiment","2.2.3.wav","1.2.5.wav","1.2.3.wav","115","odd","618111","620610","620110","619331","537004","NA","617111","621386","729","NA","NA","617108","621844","305967","617108","8545","NA","617111","732","New experiment","NA","0","0","0","yes","1024"
