acc,accuracy,average_response_time,avg_rt,background,bidi,canvas_backend,compensation,coordinates,correct,correct_display_selecting,correct_welcome,count_A,count_B,count_ISI,count_X,count_break,count_determine_break,count_display_listening,count_display_selecting,count_experiment,count_finished,count_getting_started,count_new_inline_script,count_new_logger,count_new_loop,count_new_sequence,count_plain_block,count_setup_breaks,count_wait_nextitem,count_welcome,datetime,delay_ISI,delay_wait_nextitem,description,disable_garbage_collection,empty_column,experiment_file,experiment_path,flip_order,font_bold,font_family,font_italic,font_size,font_underline,foreground,form_clicks,fullscreen,height,live_row,live_row_plain_block,logfile,opensesame_codename,opensesame_version,play1,play2,play3,repeat_cycle,response,response_break,response_display_selecting,response_finished,response_time,response_time_break,response_time_display_selecting,response_time_finished,response_time_welcome,response_welcome,round_decimals,sound_buf_size,sound_channels,sound_freq,sound_sample_size,start,stimA,stimB,stimX,subject_nr,subject_parity,time_A,time_B,time_ISI,time_X,time_break,time_determine_break,time_display_listening,time_display_selecting,time_experiment,time_finished,time_getting_started,time_new_inline_script,time_new_logger,time_new_loop,time_new_sequence,time_plain_block,time_setup_breaks,time_wait_nextitem,time_welcome,title,to_break,total_correct,total_response_time,total_responses,uniform_coordinates,width
undefined,undefined,undefined,undefined,black,no,legacy,0,uniform,undefined,undefined,undefined,0,0,1,0,0,NA,0,0,0,0,0,0,0,0,0,0,NA,0,0,Fri 14 Jun 2019 11:50:12 AM PDT,500,1000,The main experiment item,yes,NA,ABX_v3.osexp,/home/ubuntu/Desktop/panara,yes,no,mono,no,18,no,white,no,yes,768,0,0,/home/ubuntu/Desktop/panara/subject-107.csv,Jazzy James,3.1.3,1.1.5.wav,1.1.5.wav,1.1.3.wav,0,1,NA,1,NA,4661,NA,4661,NA,11215915,space,2,1024,2,48000,-16,experiment,1.1.3.wav,1.1.5.wav,1.1.5.wav,107,odd,11217739,11220305,11219805,11219020,NA,NA,11216738,11221077,734,NA,NA,11216736,11225739,NA,11216735,11216651,NA,11216738,736,New experiment,NA,0,0,0,yes,1024
undefined,undefined,undefined,undefined,black,no,legacy,0,uniform,undefined,undefined,undefined,1,1,3,1,1,NA,1,1,0,0,0,1,1,0,1,0,NA,1,0,Fri 14 Jun 2019 11:50:12 AM PDT,500,1000,The main experiment item,yes,NA,ABX_v3.osexp,/home/ubuntu/Desktop/panara,yes,no,mono,no,18,no,white,no,yes,768,1,1,/home/ubuntu/Desktop/panara/subject-107.csv,Jazzy James,3.1.3,2.2.3.wav,2.2.3.wav,2.2.1.wav,0,1,NA,1,NA,3882,NA,3882,NA,11215915,space,2,1024,2,48000,-16,experiment,2.2.1.wav,2.2.3.wav,2.2.3.wav,107,odd,11227021,11229457,11228957,11228232,NA,NA,11226020,11230175,734,NA,NA,11226018,11234057,NA,11226018,11216651,NA,11226021,736,New experiment,NA,0,0,0,yes,1024
undefined,undefined,undefined,undefined,black,no,legacy,0,uniform,undefined,undefined,undefined,2,2,5,2,2,NA,2,2,0,0,0,2,2,0,2,0,NA,2,0,Fri 14 Jun 2019 11:50:12 AM PDT,500,1000,The main experiment item,yes,NA,ABX_v3.osexp,/home/ubuntu/Desktop/panara,no,no,mono,no,18,no,white,no,yes,768,2,2,/home/ubuntu/Desktop/panara/subject-107.csv,Jazzy James,3.1.3,5.2.1.wav,5.2.1.wav,5.2.3.wav,0,1,NA,1,NA,2223,NA,2223,NA,11215915,space,2,1024,2,48000,-16,experiment,5.2.1.wav,5.2.3.wav,5.2.1.wav,107,odd,11235253,11237690,11237190,11236474,NA,NA,11234253,11238442,734,NA,NA,11234251,11240666,NA,11234250,11216651,NA,11234253,736,New experiment,NA,0,0,0,yes,1024
undefined,undefined,undefined,undefined,black,no,legacy,0,uniform,undefined,undefined,undefined,3,3,7,3,3,NA,3,3,0,0,0,3,3,0,3,0,NA,3,0,Fri 14 Jun 2019 11:50:12 AM PDT,500,1000,The main experiment item,yes,NA,ABX_v3.osexp,/home/ubuntu/Desktop/panara,no,no,mono,no,18,no,white,no,yes,768,3,3,/home/ubuntu/Desktop/panara/subject-107.csv,Jazzy James,3.1.3,4.2.3.wav,4.2.5.wav,4.2.5.wav,0,1,NA,1,NA,3431,NA,3431,NA,11215915,space,2,1024,2,48000,-16,experiment,4.2.3.wav,4.2.5.wav,4.2.5.wav,107,odd,11241853,11244320,11243820,11243109,NA,NA,11240853,11245042,734,NA,NA,11240851,11248473,NA,11240851,11216651,NA,11240853,736,New experiment,NA,0,0,0,yes,1024
undefined,undefined,undefined,undefined,black,no,legacy,0,uniform,undefined,undefined,undefined,4,4,9,4,4,NA,4,4,0,0,0,4,4,0,4,0,NA,4,0,Fri 14 Jun 2019 11:50:12 AM PDT,500,1000,The main experiment item,yes,NA,ABX_v3.osexp,/home/ubuntu/Desktop/panara,yes,no,mono,no,18,no,white,no,yes,768,4,4,/home/ubuntu/Desktop/panara/subject-107.csv,Jazzy James,3.1.3,5.2.5.wav,5.2.3.wav,5.2.3.wav,0,0,NA,0,NA,1209,NA,1209,NA,11215915,space,2,1024,2,48000,-16,experiment,5.2.3.wav,5.2.5.wav,5.2.3.wav,107,odd,11249674,11252124,11251624,11250912,NA,NA,11248674,11252847,734,NA,NA,11248671,11254056,NA,11248671,11216651,NA,11248674,736,New experiment,NA,0,0,0,yes,1024
undefined,undefined,undefined,undefined,black,no,legacy,0,uniform,undefined,undefined,undefined,5,5,11,5,5,NA,5,5,0,0,0,5,5,0,5,0,NA,5,0,Fri 14 Jun 2019 11:50:12 AM PDT,500,1000,The main experiment item,yes,NA,ABX_v3.osexp,/home/ubuntu/Desktop/panara,yes,no,mono,no,18,no,white,no,yes,768,5,5,/home/ubuntu/Desktop/panara/subject-107.csv,Jazzy James,3.1.3,1.2.5.wav,1.2.5.wav,1.2.3.wav,0,1,NA,1,NA,1390,NA,1390,NA,11215915,space,2,1024,2,48000,-16,experiment,1.2.3.wav,1.2.5.wav,1.2.5.wav,107,odd,11255257,11257828,11257328,11256543,NA,NA,11254257,11258602,734,NA,NA,11254255,11259993,NA,11254255,11216651,NA,11254257,736,New experiment,NA,0,0,0,yes,1024
undefined,undefined,undefined,undefined,black,no,legacy,0,uniform,undefined,undefined,undefined,6,6,13,6,6,NA,6,6,0,0,0,6,6,0,6,0,NA,6,0,Fri 14 Jun 2019 11:50:12 AM PDT,500,1000,The main experiment item,yes,NA,ABX_v3.osexp,/home/ubuntu/Desktop/panara,no,no,mono,no,18,no,white,no,yes,768,6,6,/home/ubuntu/Desktop/panara/subject-107.csv,Jazzy James,3.1.3,3.2.3.wav,3.2.3.wav,3.2.5.wav,0,1,NA,1,NA,1580,NA,1580,NA,11215915,space,2,1024,2,48000,-16,experiment,3.2.3.wav,3.2.5.wav,3.2.3.wav,107,odd,11261155,11263643,11263143,11262388,NA,NA,11260155,11264435,734,NA,NA,11260153,11266015,NA,11260153,11216651,NA,11260155,736,New experiment,NA,0,0,0,yes,1024
undefined,undefined,undefined,undefined,black,no,legacy,0,uniform,undefined,undefined,undefined,7,7,15,7,7,NA,7,7,0,0,0,7,7,0,7,0,NA,7,0,Fri 14 Jun 2019 11:50:12 AM PDT,500,1000,The main experiment item,yes,NA,ABX_v3.osexp,/home/ubuntu/Desktop/panara,no,no,mono,no,18,no,white,no,yes,768,7,7,/home/ubuntu/Desktop/panara/subject-107.csv,Jazzy James,3.1.3,2.2.3.wav,2.2.5.wav,2.2.5.wav,0,0,NA,0,NA,1344,NA,1344,NA,11215915,space,2,1024,2,48000,-16,experiment,2.2.3.wav,2.2.5.wav,2.2.5.wav,107,odd,11267198,11269666,11269166,11268442,NA,NA,11266197,11270376,734,NA,NA,11266195,11271720,NA,11266195,11216651,NA,11266198,736,New experiment,NA,0,0,0,yes,1024
undefined,undefined,undefined,undefined,black,no,legacy,0,uniform,undefined,undefined,undefined,8,8,17,8,8,NA,8,8,0,0,0,8,8,0,8,0,NA,8,0,Fri 14 Jun 2019 11:50:12 AM PDT,500,1000,The main experiment item,yes,NA,ABX_v3.osexp,/home/ubuntu/Desktop/panara,yes,no,mono,no,18,no,white,no,yes,768,8,8,/home/ubuntu/Desktop/panara/subject-107.csv,Jazzy James,3.1.3,4.2.4.wav,4.2.2.wav,4.2.2.wav,0,0,NA,0,NA,1513,NA,1513,NA,11215915,space,2,1024,2,48000,-16,experiment,4.2.2.wav,4.2.4.wav,4.2.2.wav,107,odd,11272948,11275428,11274928,11274212,NA,NA,11271947,11276142,734,NA,NA,11271944,11277656,NA,11271944,11216651,NA,11271947,736,New experiment,NA,0,0,0,yes,1024
undefined,undefined,undefined,undefined,black,no,legacy,0,uniform,undefined,undefined,undefined,9,9,19,9,9,NA,9,9,0,0,0,9,9,0,9,0,NA,9,0,Fri 14 Jun 2019 11:50:12 AM PDT,500,1000,The main experiment item,yes,NA,ABX_v3.osexp,/home/ubuntu/Desktop/panara,no,no,mono,no,18,no,white,no,yes,768,9,9,/home/ubuntu/Desktop/panara/subject-107.csv,Jazzy James,3.1.3,2.1.3.wav,2.1.5.wav,2.1.5.wav,0,0,NA,0,NA,1146,NA,1146,NA,11215915,space,2,1024,2,48000,-16,experiment,2.1.3.wav,2.1.5.wav,2.1.5.wav,107,odd,11278841,11281335,11280835,11280096,NA,NA,11277840,11282093,734,NA,NA,11277838,11283239,NA,11277837,11216651,NA,11277841,736,New experiment,NA,0,0,0,yes,1024
undefined,undefined,undefined,undefined,black,no,legacy,0,uniform,undefined,undefined,undefined,10,10,21,10,10,NA,10,10,0,0,0,10,10,0,10,0,NA,10,0,Fri 14 Jun 2019 11:50:12 AM PDT,500,1000,The main experiment item,yes,NA,ABX_v3.osexp,/home/ubuntu/Desktop/panara,yes,no,mono,no,18,no,white,no,yes,768,10,10,/home/ubuntu/Desktop/panara/subject-107.csv,Jazzy James,3.1.3,2.1.3.wav,2.1.1.wav,2.1.1.wav,0,0,NA,0,NA,958,NA,958,NA,11215915,space,2,1024,2,48000,-16,experiment,2.1.1.wav,2.1.3.wav,2.1.1.wav,107,odd,11284403,11286903,11286403,11285658,NA,NA,11283402,11287665,734,NA,NA,11283400,11288623,NA,11283400,11216651,NA,11283403,736,New experiment,NA,0,0,0,yes,1024
undefined,undefined,undefined,undefined,black,no,legacy,0,uniform,undefined,undefined,undefined,11,11,23,11,11,NA,11,11,0,0,0,11,11,0,11,0,NA,11,0,Fri 14 Jun 2019 11:50:12 AM PDT,500,1000,The main experiment item,yes,NA,ABX_v3.osexp,/home/ubuntu/Desktop/panara,no,no,mono,no,18,no,white,no,yes,768,11,11,/home/ubuntu/Desktop/panara/subject-107.csv,Jazzy James,3.1.3,4.2.2.wav,4.2.4.wav,4.2.4.wav,0,1,NA,1,NA,1229,NA,1229,NA,11215915,space,2,1024,2,48000,-16,experiment,4.2.2.wav,4.2.4.wav,4.2.4.wav,107,odd,11289766,11292194,11291694,11290978,NA,NA,11288766,11292913,734,NA,NA,11288764,11294143,NA,11288764,11216651,NA,11288766,736,New experiment,NA,0,0,0,yes,1024
undefined,undefined,undefined,undefined,black,no,legacy,0,uniform,undefined,undefined,undefined,12,12,25,12,12,NA,12,12,0,0,0,12,12,0,12,0,NA,12,0,Fri 14 Jun 2019 11:50:12 AM PDT,500,1000,The main experiment item,yes,NA,ABX_v3.osexp,/home/ubuntu/Desktop/panara,no,no,mono,no,18,no,white,no,yes,768,12,12,/home/ubuntu/Desktop/panara/subject-107.csv,Jazzy James,3.1.3,4.2.1.wav,4.2.3.wav,4.2.3.wav,0,1,NA,1,NA,1309,NA,1309,NA,11215915,space,2,1024,2,48000,-16,experiment,4.2.1.wav,4.2.3.wav,4.2.3.wav,107,odd,11295318,11297786,11297286,11296541,NA,NA,11294318,11298545,734,NA,NA,11294315,11299854,NA,11294315,11216651,NA,11294318,736,New experiment,NA,0,0,0,yes,1024
undefined,undefined,undefined,undefined,black,no,legacy,0,uniform,undefined,undefined,undefined,13,13,27,13,13,NA,13,13,0,0,0,13,13,0,13,0,NA,13,0,Fri 14 Jun 2019 11:50:12 AM PDT,500,1000,The main experiment item,yes,NA,ABX_v3.osexp,/home/ubuntu/Desktop/panara,yes,no,mono,no,18,no,white,no,yes,768,13,13,/home/ubuntu/Desktop/panara/subject-107.csv,Jazzy James,3.1.3,2.1.4.wav,2.1.2.wav,2.1.2.wav,0,0,NA,0,NA,750,NA,750,NA,11215915,space,2,1024,2,48000,-16,experiment,2.1.2.wav,2.1.4.wav,2.1.2.wav,107,odd,11301085,11303575,11303075,11302326,NA,NA,11300085,11304319,734,NA,NA,11300082,11305069,NA,11300082,11216651,NA,11300085,736,New experiment,NA,0,0,0,yes,1024
undefined,undefined,undefined,undefined,black,no,legacy,0,uniform,undefined,undefined,undefined,14,14,29,14,14,NA,14,14,0,0,0,14,14,0,14,0,NA,14,0,Fri 14 Jun 2019 11:50:12 AM PDT,500,1000,The main experiment item,yes,NA,ABX_v3.osexp,/home/ubuntu/Desktop/panara,no,no,mono,no,18,no,white,no,yes,768,14,14,/home/ubuntu/Desktop/panara/subject-107.csv,Jazzy James,3.1.3,1.1.1.wav,1.1.1.wav,1.1.3.wav,0,1,NA,1,NA,1045,NA,1045,NA,11215915,space,2,1024,2,48000,-16,experiment,1.1.1.wav,1.1.3.wav,1.1.1.wav,107,odd,11306271,11308833,11308333,11307547,NA,NA,11305271,11309616,734,NA,NA,11305269,11310662,NA,11305268,11216651,NA,11305271,736,New experiment,NA,0,0,0,yes,1024
undefined,undefined,undefined,undefined,black,no,legacy,0,uniform,undefined,undefined,undefined,15,15,31,15,15,NA,15,15,0,0,0,15,15,0,15,0,NA,15,0,Fri 14 Jun 2019 11:50:12 AM PDT,500,1000,The main experiment item,yes,NA,ABX_v3.osexp,/home/ubuntu/Desktop/panara,no,no,mono,no,18,no,white,no,yes,768,15,15,/home/ubuntu/Desktop/panara/subject-107.csv,Jazzy James,3.1.3,3.2.1.wav,3.2.3.wav,3.2.3.wav,0,1,NA,1,NA,1686,NA,1686,NA,11215915,space,2,1024,2,48000,-16,experiment,3.2.1.wav,3.2.3.wav,3.2.3.wav,107,odd,11311866,11314353,11313853,11313111,NA,NA,11310865,11315119,734,NA,NA,11310863,11316805,NA,11310863,11216651,NA,11310866,736,New experiment,NA,0,0,0,yes,1024
undefined,undefined,undefined,undefined,black,no,legacy,0,uniform,undefined,undefined,undefined,16,16,33,16,16,NA,16,16,0,0,0,16,16,0,16,0,NA,16,0,Fri 14 Jun 2019 11:50:12 AM PDT,500,1000,The main experiment item,yes,NA,ABX_v3.osexp,/home/ubuntu/Desktop/panara,no,no,mono,no,18,no,white,no,yes,768,16,16,/home/ubuntu/Desktop/panara/subject-107.csv,Jazzy James,3.1.3,1.1.1.wav,1.1.3.wav,1.1.3.wav,0,1,NA,1,NA,1618,NA,1618,NA,11215915,space,2,1024,2,48000,-16,experiment,1.1.1.wav,1.1.3.wav,1.1.3.wav,107,odd,11317982,11320544,11320044,11319260,NA,NA,11316982,11321323,734,NA,NA,11316979,11322941,NA,11316979,11216651,NA,11316982,736,New experiment,NA,0,0,0,yes,1024
undefined,undefined,undefined,undefined,black,no,legacy,0,uniform,undefined,undefined,undefined,17,17,35,17,17,NA,17,17,0,0,0,17,17,0,17,0,NA,17,0,Fri 14 Jun 2019 11:50:12 AM PDT,500,1000,The main experiment item,yes,NA,ABX_v3.osexp,/home/ubuntu/Desktop/panara,yes,no,mono,no,18,no,white,no,yes,768,17,17,/home/ubuntu/Desktop/panara/subject-107.csv,Jazzy James,3.1.3,2.1.3.wav,2.1.3.wav,2.1.1.wav,0,1,NA,1,NA,1118,NA,1118,NA,11215915,space,2,1024,2,48000,-16,experiment,2.1.1.wav,2.1.3.wav,2.1.3.wav,107,odd,11324150,11326649,11326149,11325404,NA,NA,11323150,11327406,734,NA,NA,11323147,11328525,NA,11323147,11216651,NA,11323150,736,New experiment,NA,0,0,0,yes,1024
undefined,undefined,undefined,undefined,black,no,legacy,0,uniform,undefined,undefined,undefined,18,18,37,18,18,NA,18,18,0,0,0,18,18,0,18,0,NA,18,0,Fri 14 Jun 2019 11:50:12 AM PDT,500,1000,The main experiment item,yes,NA,ABX_v3.osexp,/home/ubuntu/Desktop/panara,yes,no,mono,no,18,no,white,no,yes,768,18,18,/home/ubuntu/Desktop/panara/subject-107.csv,Jazzy James,3.1.3,3.1.4.wav,3.1.4.wav,3.1.2.wav,0,1,NA,1,NA,1002,NA,1002,NA,11215915,space,2,1024,2,48000,-16,experiment,3.1.2.wav,3.1.4.wav,3.1.4.wav,107,odd,11329703,11332256,11331756,11330977,NA,NA,11328703,11333033,734,NA,NA,11328701,11334036,NA,11328700,11216651,NA,11328703,736,New experiment,NA,0,0,0,yes,1024
undefined,undefined,undefined,undefined,black,no,legacy,0,uniform,undefined,undefined,undefined,19,19,39,19,19,NA,19,19,0,0,0,19,19,0,19,0,NA,19,0,Fri 14 Jun 2019 11:50:12 AM PDT,500,1000,The main experiment item,yes,NA,ABX_v3.osexp,/home/ubuntu/Desktop/panara,no,no,mono,no,18,no,white,no,yes,768,19,19,/home/ubuntu/Desktop/panara/subject-107.csv,Jazzy James,3.1.3,3.1.3.wav,3.1.3.wav,3.1.5.wav,0,0,NA,0,NA,1709,NA,1709,NA,11215915,space,2,1024,2,48000,-16,experiment,3.1.3.wav,3.1.5.wav,3.1.3.wav,107,odd,11335225,11337715,11337215,11336471,NA,NA,11334225,11338503,734,NA,NA,11334222,11340212,NA,11334222,11216651,NA,11334225,736,New experiment,NA,0,0,0,yes,1024
undefined,undefined,undefined,undefined,black,no,legacy,0,uniform,undefined,undefined,undefined,20,20,41,20,20,NA,20,20,0,0,0,20,20,0,20,0,NA,20,0,Fri 14 Jun 2019 11:50:12 AM PDT,500,1000,The main experiment item,yes,NA,ABX_v3.osexp,/home/ubuntu/Desktop/panara,yes,no,mono,no,18,no,white,no,yes,768,20,20,/home/ubuntu/Desktop/panara/subject-107.csv,Jazzy James,3.1.3,1.2.4.wav,1.2.2.wav,1.2.2.wav,0,1,NA,1,NA,653,NA,653,NA,11215915,space,2,1024,2,48000,-16,experiment,1.2.2.wav,1.2.4.wav,1.2.2.wav,107,odd,11341380,11343928,11343428,11342644,NA,NA,11340380,11344702,734,NA,NA,11340377,11345356,NA,11340377,11216651,NA,11340380,736,New experiment,NA,0,0,0,yes,1024
undefined,undefined,undefined,undefined,black,no,legacy,0,uniform,undefined,undefined,undefined,21,21,43,21,21,NA,21,21,0,0,0,21,21,0,21,0,NA,21,0,Fri 14 Jun 2019 11:50:12 AM PDT,500,1000,The main experiment item,yes,NA,ABX_v3.osexp,/home/ubuntu/Desktop/panara,yes,no,mono,no,18,no,white,no,yes,768,21,21,/home/ubuntu/Desktop/panara/subject-107.csv,Jazzy James,3.1.3,4.2.3.wav,4.2.1.wav,4.2.1.wav,0,1,NA,1,NA,954,NA,954,NA,11215915,space,2,1024,2,48000,-16,experiment,4.2.1.wav,4.2.3.wav,4.2.1.wav,107,odd,11346518,11349019,11348519,11347768,NA,NA,11345517,11349737,734,NA,NA,11345515,11350692,NA,11345515,11216651,NA,11345517,736,New experiment,NA,0,0,0,yes,1024
undefined,undefined,undefined,undefined,black,no,legacy,0,uniform,undefined,undefined,undefined,22,22,45,22,22,NA,22,22,0,0,0,22,22,0,22,0,NA,22,0,Fri 14 Jun 2019 11:50:12 AM PDT,500,1000,The main experiment item,yes,NA,ABX_v3.osexp,/home/ubuntu/Desktop/panara,no,no,mono,no,18,no,white,no,yes,768,22,22,/home/ubuntu/Desktop/panara/subject-107.csv,Jazzy James,3.1.3,4.1.2.wav,4.1.2.wav,4.1.4.wav,0,1,NA,1,NA,1295,NA,1295,NA,11215915,space,2,1024,2,48000,-16,experiment,4.1.2.wav,4.1.4.wav,4.1.2.wav,107,odd,11351946,11354394,11353894,11353183,NA,NA,11350945,11355108,734,NA,NA,11350943,11356403,NA,11350943,11216651,NA,11350946,736,New experiment,NA,0,0,0,yes,1024
undefined,undefined,undefined,undefined,black,no,legacy,0,uniform,undefined,undefined,undefined,23,23,47,23,23,NA,23,23,0,0,0,23,23,0,23,0,NA,23,0,Fri 14 Jun 2019 11:50:12 AM PDT,500,1000,The main experiment item,yes,NA,ABX_v3.osexp,/home/ubuntu/Desktop/panara,no,no,mono,no,18,no,white,no,yes,768,23,23,/home/ubuntu/Desktop/panara/subject-107.csv,Jazzy James,3.1.3,4.1.3.wav,4.1.5.wav,4.1.5.wav,0,0,NA,0,NA,674,NA,674,NA,11215915,space,2,1024,2,48000,-16,experiment,4.1.3.wav,4.1.5.wav,4.1.5.wav,107,odd,11357586,11360027,11359526,11358806,NA,NA,11356586,11360745,734,NA,NA,11356583,11361419,NA,11356583,11216651,NA,11356586,736,New experiment,NA,0,0,0,yes,1024
undefined,undefined,undefined,undefined,black,no,legacy,0,uniform,undefined,undefined,undefined,24,24,49,24,24,NA,24,24,0,0,0,24,24,0,24,0,NA,24,0,Fri 14 Jun 2019 11:50:12 AM PDT,500,1000,The main experiment item,yes,NA,ABX_v3.osexp,/home/ubuntu/Desktop/panara,yes,no,mono,no,18,no,white,no,yes,768,24,24,/home/ubuntu/Desktop/panara/subject-107.csv,Jazzy James,3.1.3,3.2.4.wav,3.2.4.wav,3.2.2.wav,0,1,NA,1,NA,1128,NA,1128,NA,11215915,space,2,1024,2,48000,-16,experiment,3.2.2.wav,3.2.4.wav,3.2.4.wav,107,odd,11362615,11365102,11364601,11363871,NA,NA,11361615,11365889,734,NA,NA,11361612,11367018,NA,11361612,11216651,NA,11361615,736,New experiment,NA,0,0,0,yes,1024
undefined,undefined,undefined,undefined,black,no,legacy,0,uniform,undefined,undefined,undefined,25,25,51,25,25,NA,25,25,0,0,0,25,25,0,25,0,NA,25,0,Fri 14 Jun 2019 11:50:12 AM PDT,500,1000,The main experiment item,yes,NA,ABX_v3.osexp,/home/ubuntu/Desktop/panara,no,no,mono,no,18,no,white,no,yes,768,25,25,/home/ubuntu/Desktop/panara/subject-107.csv,Jazzy James,3.1.3,3.1.1.wav,3.1.1.wav,3.1.3.wav,0,0,NA,backspace,NA,1014,NA,1014,NA,11215915,space,2,1024,2,48000,-16,experiment,3.1.1.wav,3.1.3.wav,3.1.1.wav,107,odd,11368163,11370654,11370154,11369390,NA,NA,11367163,11371388,734,NA,NA,11367161,11372402,NA,11367161,11216651,NA,11367163,736,New experiment,NA,0,0,0,yes,1024
undefined,undefined,undefined,undefined,black,no,legacy,0,uniform,undefined,undefined,undefined,26,26,53,26,26,NA,26,26,0,0,0,26,26,0,26,0,NA,26,0,Fri 14 Jun 2019 11:50:12 AM PDT,500,1000,The main experiment item,yes,NA,ABX_v3.osexp,/home/ubuntu/Desktop/panara,yes,no,mono,no,18,no,white,no,yes,768,26,26,/home/ubuntu/Desktop/panara/subject-107.csv,Jazzy James,3.1.3,4.1.4.wav,4.1.4.wav,4.1.2.wav,0,1,NA,2,NA,1234,NA,1234,NA,11215915,space,2,1024,2,48000,-16,experiment,4.1.2.wav,4.1.4.wav,4.1.4.wav,107,odd,11373566,11376029,11375529,11374808,NA,NA,11372566,11376744,734,NA,NA,11372564,11377978,NA,11372564,11216651,NA,11372566,736,New experiment,NA,0,0,0,yes,1024
undefined,undefined,undefined,undefined,black,no,legacy,0,uniform,undefined,undefined,undefined,27,27,55,27,27,NA,27,27,0,0,0,27,27,0,27,0,NA,27,0,Fri 14 Jun 2019 11:50:12 AM PDT,500,1000,The main experiment item,yes,NA,ABX_v3.osexp,/home/ubuntu/Desktop/panara,yes,no,mono,no,18,no,white,no,yes,768,27,27,/home/ubuntu/Desktop/panara/subject-107.csv,Jazzy James,3.1.3,5.2.3.wav,5.2.3.wav,5.2.1.wav,0,1,NA,1,NA,1717,NA,1717,NA,11215915,space,2,1024,2,48000,-16,experiment,5.2.1.wav,5.2.3.wav,5.2.3.wav,107,odd,11379154,11381589,11381089,11380377,NA,NA,11378154,11382307,734,NA,NA,11378151,11384025,NA,11378151,11216651,NA,11378154,736,New experiment,NA,0,0,0,yes,1024
undefined,undefined,undefined,undefined,black,no,legacy,0,uniform,undefined,undefined,undefined,28,28,57,28,28,NA,28,28,0,0,0,28,28,0,28,0,NA,28,0,Fri 14 Jun 2019 11:50:12 AM PDT,500,1000,The main experiment item,yes,NA,ABX_v3.osexp,/home/ubuntu/Desktop/panara,no,no,mono,no,18,no,white,no,yes,768,28,28,/home/ubuntu/Desktop/panara/subject-107.csv,Jazzy James,3.1.3,3.1.2.wav,3.1.2.wav,3.1.4.wav,0,0,NA,0,NA,1982,NA,1982,NA,11215915,space,2,1024,2,48000,-16,experiment,3.1.2.wav,3.1.4.wav,3.1.2.wav,107,odd,11385152,11387736,11387236,11386452,NA,NA,11384152,11388523,734,NA,NA,11384150,11390505,NA,11384150,11216651,NA,11384152,736,New experiment,NA,0,0,0,yes,1024
undefined,undefined,undefined,undefined,black,no,legacy,0,uniform,undefined,undefined,undefined,29,29,59,29,29,NA,29,29,0,0,0,29,29,0,29,0,NA,29,0,Fri 14 Jun 2019 11:50:12 AM PDT,500,1000,The main experiment item,yes,NA,ABX_v3.osexp,/home/ubuntu/Desktop/panara,yes,no,mono,no,18,no,white,no,yes,768,29,29,/home/ubuntu/Desktop/panara/subject-107.csv,Jazzy James,3.1.3,2.2.4.wav,2.2.4.wav,2.2.2.wav,0,1,NA,1,NA,958,NA,958,NA,11215915,space,2,1024,2,48000,-16,experiment,2.2.2.wav,2.2.4.wav,2.2.4.wav,107,odd,11391704,11394132,11393632,11392920,NA,NA,11390703,11394859,734,NA,NA,11390700,11395817,NA,11390700,11216651,NA,11390703,736,New experiment,NA,0,0,0,yes,1024
undefined,undefined,undefined,undefined,black,no,legacy,0,uniform,undefined,undefined,undefined,30,30,61,30,30,NA,30,30,0,0,0,30,30,0,30,0,NA,30,0,Fri 14 Jun 2019 11:50:12 AM PDT,500,1000,The main experiment item,yes,NA,ABX_v3.osexp,/home/ubuntu/Desktop/panara,no,no,mono,no,18,no,white,no,yes,768,30,30,/home/ubuntu/Desktop/panara/subject-107.csv,Jazzy James,3.1.3,4.2.3.wav,4.2.3.wav,4.2.5.wav,0,1,NA,1,NA,1461,NA,1461,NA,11215915,space,2,1024,2,48000,-16,experiment,4.2.3.wav,4.2.5.wav,4.2.3.wav,107,odd,11396993,11399507,11399007,11398256,NA,NA,11395993,11400235,734,NA,NA,11395990,11401697,NA,11395990,11216651,NA,11395993,736,New experiment,NA,0,0,0,yes,1024
undefined,undefined,undefined,undefined,black,no,legacy,0,uniform,undefined,undefined,undefined,31,31,63,31,31,NA,31,31,0,0,0,31,31,0,31,0,NA,31,0,Fri 14 Jun 2019 11:50:12 AM PDT,500,1000,The main experiment item,yes,NA,ABX_v3.osexp,/home/ubuntu/Desktop/panara,no,no,mono,no,18,no,white,no,yes,768,31,31,/home/ubuntu/Desktop/panara/subject-107.csv,Jazzy James,3.1.3,1.2.1.wav,1.2.1.wav,1.2.3.wav,0,1,NA,1,NA,943,NA,943,NA,11215915,space,2,1024,2,48000,-16,experiment,1.2.1.wav,1.2.3.wav,1.2.1.wav,107,odd,11402880,11405458,11404958,11404179,NA,NA,11401879,11406241,734,NA,NA,11401877,11407184,NA,11401877,11216651,NA,11401880,736,New experiment,NA,0,0,0,yes,1024
undefined,undefined,undefined,undefined,black,no,legacy,0,uniform,undefined,undefined,undefined,32,32,65,32,32,NA,32,32,0,0,0,32,32,0,32,0,NA,32,0,Fri 14 Jun 2019 11:50:12 AM PDT,500,1000,The main experiment item,yes,NA,ABX_v3.osexp,/home/ubuntu/Desktop/panara,no,no,mono,no,18,no,white,no,yes,768,32,32,/home/ubuntu/Desktop/panara/subject-107.csv,Jazzy James,3.1.3,5.2.2.wav,5.2.2.wav,5.2.4.wav,0,0,NA,0,NA,1575,NA,1575,NA,11215915,space,2,1024,2,48000,-16,experiment,5.2.2.wav,5.2.4.wav,5.2.2.wav,107,odd,11408366,11410800,11410300,11409583,NA,NA,11407366,11411553,734,NA,NA,11407363,11413128,NA,11407363,11216651,NA,11407366,736,New experiment,NA,0,0,0,yes,1024
undefined,undefined,undefined,undefined,black,no,legacy,0,uniform,undefined,undefined,undefined,33,33,67,33,33,NA,33,33,0,0,0,33,33,0,33,0,NA,33,0,Fri 14 Jun 2019 11:50:12 AM PDT,500,1000,The main experiment item,yes,NA,ABX_v3.osexp,/home/ubuntu/Desktop/panara,no,no,mono,no,18,no,white,no,yes,768,33,33,/home/ubuntu/Desktop/panara/subject-107.csv,Jazzy James,3.1.3,3.2.2.wav,3.2.2.wav,3.2.4.wav,0,1,NA,1,NA,1601,NA,1601,NA,11215915,space,2,1024,2,48000,-16,experiment,3.2.2.wav,3.2.4.wav,3.2.2.wav,107,odd,11414282,11416851,11416351,11415579,NA,NA,11413282,11417598,734,NA,NA,11413279,11419200,NA,11413279,11216651,NA,11413282,736,New experiment,NA,0,0,0,yes,1024
undefined,undefined,undefined,undefined,black,no,legacy,0,uniform,undefined,undefined,undefined,34,34,69,34,34,NA,34,34,0,0,0,34,34,0,34,0,NA,34,0,Fri 14 Jun 2019 11:50:12 AM PDT,500,1000,The main experiment item,yes,NA,ABX_v3.osexp,/home/ubuntu/Desktop/panara,yes,no,mono,no,18,no,white,no,yes,768,34,34,/home/ubuntu/Desktop/panara/subject-107.csv,Jazzy James,3.1.3,1.1.4.wav,1.1.4.wav,1.1.2.wav,0,0,NA,0,NA,2046,NA,2046,NA,11215915,space,2,1024,2,48000,-16,experiment,1.1.2.wav,1.1.4.wav,1.1.4.wav,107,odd,11420394,11422959,11422459,11421675,NA,NA,11419394,11423785,734,NA,NA,11419391,11425831,NA,11419391,11216651,NA,11419394,736,New experiment,NA,0,0,0,yes,1024
undefined,undefined,undefined,undefined,black,no,legacy,0,uniform,undefined,undefined,undefined,35,35,71,35,35,NA,35,35,0,0,0,35,35,0,35,0,NA,35,0,Fri 14 Jun 2019 11:50:12 AM PDT,500,1000,The main experiment item,yes,NA,ABX_v3.osexp,/home/ubuntu/Desktop/panara,no,no,mono,no,18,no,white,no,yes,768,35,35,/home/ubuntu/Desktop/panara/subject-107.csv,Jazzy James,3.1.3,1.1.2.wav,1.1.2.wav,1.1.4.wav,0,0,NA,0,NA,1262,NA,1262,NA,11215915,space,2,1024,2,48000,-16,experiment,1.1.2.wav,1.1.4.wav,1.1.2.wav,107,odd,11426983,11429611,11429111,11428315,NA,NA,11425983,11430393,734,NA,NA,11425980,11431655,NA,11425980,11216651,NA,11425983,736,New experiment,NA,0,0,0,yes,1024
undefined,undefined,undefined,undefined,black,no,legacy,0,uniform,undefined,undefined,undefined,36,36,73,36,36,NA,36,36,0,0,0,36,36,0,36,0,NA,36,0,Fri 14 Jun 2019 11:50:12 AM PDT,500,1000,The main experiment item,yes,NA,ABX_v3.osexp,/home/ubuntu/Desktop/panara,yes,no,mono,no,18,no,white,no,yes,768,36,36,/home/ubuntu/Desktop/panara/subject-107.csv,Jazzy James,3.1.3,2.1.5.wav,2.1.3.wav,2.1.3.wav,0,0,NA,0,NA,1831,NA,1831,NA,11215915,space,2,1024,2,48000,-16,experiment,2.1.3.wav,2.1.5.wav,2.1.3.wav,107,odd,11432840,11435350,11434850,11434100,NA,NA,11431840,11436103,734,NA,NA,11431837,11437935,NA,11431837,11216651,NA,11431840,736,New experiment,NA,0,0,0,yes,1024
undefined,undefined,undefined,undefined,black,no,legacy,0,uniform,undefined,undefined,undefined,37,37,75,37,37,NA,37,37,0,0,0,37,37,0,37,0,NA,37,0,Fri 14 Jun 2019 11:50:12 AM PDT,500,1000,The main experiment item,yes,NA,ABX_v3.osexp,/home/ubuntu/Desktop/panara,yes,no,mono,no,18,no,white,no,yes,768,37,37,/home/ubuntu/Desktop/panara/subject-107.csv,Jazzy James,3.1.3,4.1.5.wav,4.1.3.wav,4.1.3.wav,0,0,NA,0,NA,1421,NA,1421,NA,11215915,space,2,1024,2,48000,-16,experiment,4.1.3.wav,4.1.5.wav,4.1.3.wav,107,odd,11439117,11441579,11441079,11440349,NA,NA,11438117,11442305,734,NA,NA,11438114,11443726,NA,11438114,11216651,NA,11438117,736,New experiment,NA,0,0,0,yes,1024
undefined,undefined,undefined,undefined,black,no,legacy,0,uniform,undefined,undefined,undefined,38,38,77,38,38,NA,38,38,0,0,0,38,38,0,38,0,NA,38,0,Fri 14 Jun 2019 11:50:12 AM PDT,500,1000,The main experiment item,yes,NA,ABX_v3.osexp,/home/ubuntu/Desktop/panara,yes,no,mono,no,18,no,white,no,yes,768,38,38,/home/ubuntu/Desktop/panara/subject-107.csv,Jazzy James,3.1.3,2.1.4.wav,2.1.4.wav,2.1.2.wav,0,1,NA,1,NA,2107,NA,2107,NA,11215915,space,2,1024,2,48000,-16,experiment,2.1.2.wav,2.1.4.wav,2.1.4.wav,107,odd,11444900,11447410,11446910,11446157,NA,NA,11443900,11448163,734,NA,NA,11443898,11450270,NA,11443898,11216651,NA,11443900,736,New experiment,NA,0,0,0,yes,1024
undefined,undefined,undefined,undefined,black,no,legacy,0,uniform,undefined,undefined,undefined,39,39,79,39,39,NA,39,39,0,0,0,39,39,0,39,0,NA,39,0,Fri 14 Jun 2019 11:50:12 AM PDT,500,1000,The main experiment item,yes,NA,ABX_v3.osexp,/home/ubuntu/Desktop/panara,yes,no,mono,no,18,no,white,no,yes,768,39,39,/home/ubuntu/Desktop/panara/subject-107.csv,Jazzy James,3.1.3,1.2.3.wav,1.2.3.wav,1.2.1.wav,0,1,NA,1,NA,1446,NA,1446,NA,11215915,space,2,1024,2,48000,-16,experiment,1.2.1.wav,1.2.3.wav,1.2.3.wav,107,odd,11451432,11453993,11453493,11452714,NA,NA,11450431,11454775,734,NA,NA,11450429,11456222,NA,11450429,11216651,NA,11450432,736,New experiment,NA,0,0,0,yes,1024
undefined,undefined,undefined,undefined,black,no,legacy,0,uniform,undefined,undefined,undefined,40,40,81,40,40,NA,40,40,0,0,0,40,40,0,40,0,NA,40,0,Fri 14 Jun 2019 11:50:12 AM PDT,500,1000,The main experiment item,yes,NA,ABX_v3.osexp,/home/ubuntu/Desktop/panara,no,no,mono,no,18,no,white,no,yes,768,40,40,/home/ubuntu/Desktop/panara/subject-107.csv,Jazzy James,3.1.3,1.2.3.wav,1.2.3.wav,1.2.5.wav,0,0,NA,0,NA,1220,NA,1220,NA,11215915,space,2,1024,2,48000,-16,experiment,1.2.3.wav,1.2.5.wav,1.2.3.wav,107,odd,11457378,11459938,11459438,11458658,NA,NA,11456377,11460721,734,NA,NA,11456374,11461941,NA,11456374,11216651,NA,11456378,736,New experiment,NA,0,0,0,yes,1024
undefined,undefined,undefined,undefined,black,no,legacy,0,uniform,undefined,undefined,undefined,41,41,83,41,41,NA,41,41,0,0,0,41,41,0,41,0,NA,41,0,Fri 14 Jun 2019 11:50:12 AM PDT,500,1000,The main experiment item,yes,NA,ABX_v3.osexp,/home/ubuntu/Desktop/panara,no,no,mono,no,18,no,white,no,yes,768,41,41,/home/ubuntu/Desktop/panara/subject-107.csv,Jazzy James,3.1.3,5.2.2.wav,5.2.4.wav,5.2.4.wav,0,1,NA,1,NA,1667,NA,1667,NA,11215915,space,2,1024,2,48000,-16,experiment,5.2.2.wav,5.2.4.wav,5.2.4.wav,107,odd,11463133,11465599,11465099,11464347,NA,NA,11462133,11466345,734,NA,NA,11462130,11468012,NA,11462130,11216651,NA,11462133,736,New experiment,NA,0,0,0,yes,1024
undefined,undefined,undefined,undefined,black,no,legacy,0,uniform,undefined,undefined,undefined,42,42,85,42,42,NA,42,42,0,0,0,42,42,0,42,0,NA,42,0,Fri 14 Jun 2019 11:50:12 AM PDT,500,1000,The main experiment item,yes,NA,ABX_v3.osexp,/home/ubuntu/Desktop/panara,yes,no,mono,no,18,no,white,no,yes,768,42,42,/home/ubuntu/Desktop/panara/subject-107.csv,Jazzy James,3.1.3,5.2.5.wav,5.2.5.wav,5.2.3.wav,0,1,NA,1,NA,1420,NA,1420,NA,11215915,space,2,1024,2,48000,-16,experiment,5.2.3.wav,5.2.5.wav,5.2.5.wav,107,odd,11469188,11471645,11471145,11470426,NA,NA,11468188,11472368,734,NA,NA,11468186,11473789,NA,11468185,11216651,NA,11468188,736,New experiment,NA,0,0,0,yes,1024
undefined,undefined,undefined,undefined,black,no,legacy,0,uniform,undefined,undefined,undefined,43,43,87,43,43,NA,43,43,0,0,0,43,43,0,43,0,NA,43,0,Fri 14 Jun 2019 11:50:12 AM PDT,500,1000,The main experiment item,yes,NA,ABX_v3.osexp,/home/ubuntu/Desktop/panara,no,no,mono,no,18,no,white,no,yes,768,43,43,/home/ubuntu/Desktop/panara/subject-107.csv,Jazzy James,3.1.3,2.2.2.wav,2.2.2.wav,2.2.4.wav,0,1,NA,1,NA,1196,NA,1196,NA,11215915,space,2,1024,2,48000,-16,experiment,2.2.2.wav,2.2.4.wav,2.2.2.wav,107,odd,11474949,11477388,11476888,11476167,NA,NA,11473949,11478144,734,NA,NA,11473946,11479340,NA,11473946,11216651,NA,11473949,736,New experiment,NA,0,0,0,yes,1024
undefined,undefined,undefined,undefined,black,no,legacy,0,uniform,undefined,undefined,undefined,44,44,89,44,44,NA,44,44,0,0,0,44,44,0,44,0,NA,44,0,Fri 14 Jun 2019 11:50:12 AM PDT,500,1000,The main experiment item,yes,NA,ABX_v3.osexp,/home/ubuntu/Desktop/panara,no,no,mono,no,18,no,white,no,yes,768,44,44,/home/ubuntu/Desktop/panara/subject-107.csv,Jazzy James,3.1.3,3.1.1.wav,3.1.3.wav,3.1.3.wav,0,0,NA,0,NA,970,NA,970,NA,11215915,space,2,1024,2,48000,-16,experiment,3.1.1.wav,3.1.3.wav,3.1.3.wav,107,odd,11480491,11482986,11482486,11481735,NA,NA,11479490,11483738,734,NA,NA,11479487,11484708,NA,11479487,11216651,NA,11479491,736,New experiment,NA,0,0,0,yes,1024
undefined,undefined,undefined,undefined,black,no,legacy,0,uniform,undefined,undefined,undefined,45,45,91,45,45,NA,45,45,0,0,0,45,45,0,45,0,NA,45,0,Fri 14 Jun 2019 11:50:12 AM PDT,500,1000,The main experiment item,yes,NA,ABX_v3.osexp,/home/ubuntu/Desktop/panara,yes,no,mono,no,18,no,white,no,yes,768,45,45,/home/ubuntu/Desktop/panara/subject-107.csv,Jazzy James,3.1.3,2.2.3.wav,2.2.1.wav,2.2.1.wav,0,0,NA,0,NA,1093,NA,1093,NA,11215915,space,2,1024,2,48000,-16,experiment,2.2.1.wav,2.2.3.wav,2.2.1.wav,107,odd,11485855,11488346,11487846,11487100,NA,NA,11484854,11489070,734,NA,NA,11484852,11490164,NA,11484852,11216651,NA,11484855,736,New experiment,NA,0,0,0,yes,1024
undefined,undefined,undefined,undefined,black,no,legacy,0,uniform,undefined,undefined,undefined,46,46,93,46,46,NA,46,46,0,0,0,46,46,0,46,0,NA,46,0,Fri 14 Jun 2019 11:50:12 AM PDT,500,1000,The main experiment item,yes,NA,ABX_v3.osexp,/home/ubuntu/Desktop/panara,no,no,mono,no,18,no,white,no,yes,768,46,46,/home/ubuntu/Desktop/panara/subject-107.csv,Jazzy James,3.1.3,3.2.3.wav,3.2.5.wav,3.2.5.wav,0,1,NA,1,NA,2457,NA,2457,NA,11215915,space,2,1024,2,48000,-16,experiment,3.2.3.wav,3.2.5.wav,3.2.5.wav,107,odd,11491345,11493851,11493351,11492568,NA,NA,11490345,11494634,734,NA,NA,11490342,11497091,NA,11490342,11216651,NA,11490345,736,New experiment,NA,0,0,0,yes,1024
undefined,undefined,undefined,undefined,black,no,legacy,0,uniform,undefined,undefined,undefined,47,47,95,47,47,NA,47,47,0,0,0,47,47,0,47,0,NA,47,0,Fri 14 Jun 2019 11:50:12 AM PDT,500,1000,The main experiment item,yes,NA,ABX_v3.osexp,/home/ubuntu/Desktop/panara,no,no,mono,no,18,no,white,no,yes,768,47,47,/home/ubuntu/Desktop/panara/subject-107.csv,Jazzy James,3.1.3,1.1.3.wav,1.1.3.wav,1.1.5.wav,0,1,NA,1,NA,1023,NA,1023,NA,11215915,space,2,1024,2,48000,-16,experiment,1.1.3.wav,1.1.5.wav,1.1.3.wav,107,odd,11498267,11500868,11500368,11499567,NA,NA,11497267,11501652,734,NA,NA,11497264,11502675,NA,11497264,11216651,NA,11497267,736,New experiment,NA,0,0,0,yes,1024
undefined,undefined,undefined,undefined,black,no,legacy,0,uniform,undefined,undefined,undefined,48,48,97,48,48,NA,48,48,0,0,0,48,48,0,48,0,NA,48,0,Fri 14 Jun 2019 11:50:12 AM PDT,500,1000,The main experiment item,yes,NA,ABX_v3.osexp,/home/ubuntu/Desktop/panara,yes,no,mono,no,18,no,white,no,yes,768,48,48,/home/ubuntu/Desktop/panara/subject-107.csv,Jazzy James,3.1.3,3.2.3.wav,3.2.1.wav,3.2.1.wav,0,0,NA,0,NA,769,NA,769,NA,11215915,space,2,1024,2,48000,-16,experiment,3.2.1.wav,3.2.3.wav,3.2.1.wav,107,odd,11503857,11506357,11505857,11505106,NA,NA,11502857,11507113,734,NA,NA,11502854,11507883,NA,11502854,11216651,NA,11502857,736,New experiment,NA,0,0,0,yes,1024
undefined,undefined,undefined,undefined,black,no,legacy,0,uniform,undefined,undefined,undefined,49,49,99,49,49,NA,49,49,0,0,0,49,49,0,49,0,NA,49,0,Fri 14 Jun 2019 11:50:12 AM PDT,500,1000,The main experiment item,yes,NA,ABX_v3.osexp,/home/ubuntu/Desktop/panara,no,no,mono,no,18,no,white,no,yes,768,49,49,/home/ubuntu/Desktop/panara/subject-107.csv,Jazzy James,3.1.3,4.1.1.wav,4.1.3.wav,4.1.3.wav,0,1,NA,1,NA,2045,NA,2045,NA,11215915,space,2,1024,2,48000,-16,experiment,4.1.1.wav,4.1.3.wav,4.1.3.wav,107,odd,11509031,11511498,11510998,11510276,NA,NA,11508030,11512253,734,NA,NA,11508028,11514298,NA,11508028,11216651,NA,11508031,736,New experiment,NA,0,0,0,yes,1024
undefined,undefined,undefined,undefined,black,no,legacy,0,uniform,undefined,undefined,undefined,50,50,101,50,50,NA,50,50,0,0,0,50,50,0,50,0,NA,50,0,Fri 14 Jun 2019 11:50:12 AM PDT,500,1000,The main experiment item,yes,NA,ABX_v3.osexp,/home/ubuntu/Desktop/panara,no,no,mono,no,18,no,white,no,yes,768,50,50,/home/ubuntu/Desktop/panara/subject-107.csv,Jazzy James,3.1.3,4.1.1.wav,4.1.1.wav,4.1.3.wav,0,0,space,0,NA,1015,3522,1015,NA,11215915,space,2,1024,2,48000,-16,experiment,4.1.1.wav,4.1.3.wav,4.1.1.wav,107,odd,11518988,11521453,11520953,11520201,11514464,NA,11517988,11522178,734,NA,NA,11514462,11523194,NA,11514461,11216651,NA,11517988,736,New experiment,NA,0,0,0,yes,1024
undefined,undefined,undefined,undefined,black,no,legacy,0,uniform,undefined,undefined,undefined,51,51,103,51,51,NA,51,51,0,0,0,51,51,0,51,0,NA,51,0,Fri 14 Jun 2019 11:50:12 AM PDT,500,1000,The main experiment item,yes,NA,ABX_v3.osexp,/home/ubuntu/Desktop/panara,yes,no,mono,no,18,no,white,no,yes,768,51,51,/home/ubuntu/Desktop/panara/subject-107.csv,Jazzy James,3.1.3,2.2.5.wav,2.2.3.wav,2.2.3.wav,0,0,space,0,NA,545,3522,545,NA,11215915,space,2,1024,2,48000,-16,experiment,2.2.3.wav,2.2.5.wav,2.2.3.wav,107,odd,11524353,11526794,11526294,11525570,11514464,NA,11523353,11527511,734,NA,NA,11523350,11528057,NA,11523350,11216651,NA,11523353,736,New experiment,NA,0,0,0,yes,1024
undefined,undefined,undefined,undefined,black,no,legacy,0,uniform,undefined,undefined,undefined,52,52,105,52,52,NA,52,52,0,0,0,52,52,0,52,0,NA,52,0,Fri 14 Jun 2019 11:50:12 AM PDT,500,1000,The main experiment item,yes,NA,ABX_v3.osexp,/home/ubuntu/Desktop/panara,no,no,mono,no,18,no,white,no,yes,768,52,52,/home/ubuntu/Desktop/panara/subject-107.csv,Jazzy James,3.1.3,1.2.2.wav,1.2.4.wav,1.2.4.wav,0,0,space,0,NA,535,3522,535,NA,11215915,space,2,1024,2,48000,-16,experiment,1.2.2.wav,1.2.4.wav,1.2.4.wav,107,odd,11529197,11531729,11531229,11530478,11514464,NA,11528196,11532481,734,NA,NA,11528194,11533016,NA,11528194,11216651,NA,11528197,736,New experiment,NA,0,0,0,yes,1024
undefined,undefined,undefined,undefined,black,no,legacy,0,uniform,undefined,undefined,undefined,53,53,107,53,53,NA,53,53,0,0,0,53,53,0,53,0,NA,53,0,Fri 14 Jun 2019 11:50:12 AM PDT,500,1000,The main experiment item,yes,NA,ABX_v3.osexp,/home/ubuntu/Desktop/panara,yes,no,mono,no,18,no,white,no,yes,768,53,53,/home/ubuntu/Desktop/panara/subject-107.csv,Jazzy James,3.1.3,3.1.5.wav,3.1.5.wav,3.1.3.wav,0,1,space,1,NA,790,3522,790,NA,11215915,space,2,1024,2,48000,-16,experiment,3.1.3.wav,3.1.5.wav,3.1.5.wav,107,odd,11534156,11536707,11536207,11535428,11514464,NA,11533156,11537459,734,NA,NA,11533153,11538249,NA,11533153,11216651,NA,11533156,736,New experiment,NA,0,0,0,yes,1024
undefined,undefined,undefined,undefined,black,no,legacy,0,uniform,undefined,undefined,undefined,54,54,109,54,54,NA,54,54,0,0,0,54,54,0,54,0,NA,54,0,Fri 14 Jun 2019 11:50:12 AM PDT,500,1000,The main experiment item,yes,NA,ABX_v3.osexp,/home/ubuntu/Desktop/panara,yes,no,mono,no,18,no,white,no,yes,768,0,53,/home/ubuntu/Desktop/panara/subject-107.csv,Jazzy James,3.1.3,3.1.4.wav,1.1.4.wav,1.1.2.wav,0,0,space,0,NA,523,3522,523,NA,11215915,space,2,1024,2,48000,-16,experiment,1.1.2.wav,3.1.4.wav,1.1.4.wav,107,odd,11539473,11542038,11541538,11540766,11514464,NA,11538473,11542821,734,NA,NA,11538470,11543345,11538357,11538470,11216651,NA,11538473,736,New experiment,NA,0,0,0,yes,1024
undefined,undefined,undefined,undefined,black,no,legacy,0,uniform,undefined,undefined,undefined,55,55,111,55,55,NA,55,55,0,0,0,55,55,0,55,0,NA,55,0,Fri 14 Jun 2019 11:50:12 AM PDT,500,1000,The main experiment item,yes,NA,ABX_v3.osexp,/home/ubuntu/Desktop/panara,no,no,mono,no,18,no,white,no,yes,768,1,53,/home/ubuntu/Desktop/panara/subject-107.csv,Jazzy James,3.1.3,1.1.1.wav,1.2.1.wav,1.2.3.wav,0,1,space,1,NA,750,3522,750,NA,11215915,space,2,1024,2,48000,-16,experiment,1.1.1.wav,1.2.3.wav,1.2.1.wav,107,odd,11544520,11547066,11546566,11545795,11514464,NA,11543520,11547850,734,NA,NA,11543517,11548601,11538357,11543517,11216651,NA,11543520,736,New experiment,NA,0,0,0,yes,1024
undefined,undefined,undefined,undefined,black,no,legacy,0,uniform,undefined,undefined,undefined,56,56,113,56,56,NA,56,56,0,0,0,56,56,0,56,0,NA,56,0,Fri 14 Jun 2019 11:50:12 AM PDT,500,1000,The main experiment item,yes,NA,ABX_v3.osexp,/home/ubuntu/Desktop/panara,yes,no,mono,no,18,no,white,no,yes,768,2,53,/home/ubuntu/Desktop/panara/subject-107.csv,Jazzy James,3.1.3,4.1.5.wav,4.2.5.wav,4.2.3.wav,0,1,space,1,NA,779,3522,779,NA,11215915,space,2,1024,2,48000,-16,experiment,4.2.3.wav,4.1.5.wav,4.2.5.wav,107,odd,11549762,11552236,11551736,11550984,11514464,NA,11548762,11552989,734,NA,NA,11548759,11553768,11538357,11548759,11216651,NA,11548762,736,New experiment,NA,0,0,0,yes,1024
undefined,undefined,undefined,undefined,black,no,legacy,0,uniform,undefined,undefined,undefined,57,57,115,57,57,NA,57,57,0,0,0,57,57,0,57,0,NA,57,0,Fri 14 Jun 2019 11:50:12 AM PDT,500,1000,The main experiment item,yes,NA,ABX_v3.osexp,/home/ubuntu/Desktop/panara,yes,no,mono,no,18,no,white,no,yes,768,3,53,/home/ubuntu/Desktop/panara/subject-107.csv,Jazzy James,3.1.3,4.1.3.wav,3.1.3.wav,3.1.1.wav,0,0,space,0,NA,767,3522,767,NA,11215915,space,2,1024,2,48000,-16,experiment,3.1.1.wav,4.1.3.wav,3.1.3.wav,107,odd,11554953,11557462,11556962,11556196,11514464,NA,11553953,11558216,734,NA,NA,11553950,11558984,11538357,11553950,11216651,NA,11553953,736,New experiment,NA,0,0,0,yes,1024
undefined,undefined,undefined,undefined,black,no,legacy,0,uniform,undefined,undefined,undefined,58,58,117,58,58,NA,58,58,0,0,0,58,58,0,58,0,NA,58,0,Fri 14 Jun 2019 11:50:12 AM PDT,500,1000,The main experiment item,yes,NA,ABX_v3.osexp,/home/ubuntu/Desktop/panara,no,no,mono,no,18,no,white,no,yes,768,4,53,/home/ubuntu/Desktop/panara/subject-107.csv,Jazzy James,3.1.3,3.2.3.wav,3.1.3.wav,3.1.5.wav,0,1,space,1,NA,923,3522,923,NA,11215915,space,2,1024,2,48000,-16,experiment,3.2.3.wav,3.1.5.wav,3.1.3.wav,107,odd,11560143,11562638,11562138,11561387,11514464,NA,11559143,11563420,734,NA,NA,11559140,11564344,11538357,11559140,11216651,NA,11559143,736,New experiment,NA,0,0,0,yes,1024
undefined,undefined,undefined,undefined,black,no,legacy,0,uniform,undefined,undefined,undefined,59,59,119,59,59,NA,59,59,0,0,0,59,59,0,59,0,NA,59,0,Fri 14 Jun 2019 11:50:12 AM PDT,500,1000,The main experiment item,yes,NA,ABX_v3.osexp,/home/ubuntu/Desktop/panara,yes,no,mono,no,18,no,white,no,yes,768,5,53,/home/ubuntu/Desktop/panara/subject-107.csv,Jazzy James,3.1.3,1.1.4.wav,2.1.4.wav,2.1.2.wav,0,1,space,1,NA,1291,3522,1291,NA,11215915,space,2,1024,2,48000,-16,experiment,2.1.2.wav,1.1.4.wav,2.1.4.wav,107,odd,11565511,11568044,11567544,11566791,11514464,NA,11564510,11568796,734,NA,NA,11564508,11570087,11538357,11564508,11216651,NA,11564511,736,New experiment,NA,0,0,0,yes,1024
undefined,undefined,undefined,undefined,black,no,legacy,0,uniform,undefined,undefined,undefined,60,60,121,60,60,NA,60,60,0,0,0,60,60,0,60,0,NA,60,0,Fri 14 Jun 2019 11:50:12 AM PDT,500,1000,The main experiment item,yes,NA,ABX_v3.osexp,/home/ubuntu/Desktop/panara,yes,no,mono,no,18,no,white,no,yes,768,6,53,/home/ubuntu/Desktop/panara/subject-107.csv,Jazzy James,3.1.3,4.2.5.wav,2.2.5.wav,2.2.3.wav,0,0,space,0,NA,577,3522,577,NA,11215915,space,2,1024,2,48000,-16,experiment,2.2.3.wav,4.2.5.wav,2.2.5.wav,107,odd,11571265,11573696,11573196,11572481,11514464,NA,11570265,11574436,734,NA,NA,11570262,11575014,11538357,11570262,11216651,NA,11570265,736,New experiment,NA,0,0,0,yes,1024
undefined,undefined,undefined,undefined,black,no,legacy,0,uniform,undefined,undefined,undefined,61,61,123,61,61,NA,61,61,0,0,0,61,61,0,61,0,NA,61,0,Fri 14 Jun 2019 11:50:12 AM PDT,500,1000,The main experiment item,yes,NA,ABX_v3.osexp,/home/ubuntu/Desktop/panara,yes,no,mono,no,18,no,white,no,yes,768,7,53,/home/ubuntu/Desktop/panara/subject-107.csv,Jazzy James,3.1.3,4.1.5.wav,3.1.5.wav,3.1.3.wav,0,0,space,0,NA,1045,3522,1045,NA,11215915,space,2,1024,2,48000,-16,experiment,3.1.3.wav,4.1.5.wav,3.1.5.wav,107,odd,11576163,11578688,11578188,11577408,11514464,NA,11575162,11579441,734,NA,NA,11575160,11580487,11538357,11575160,11216651,NA,11575163,736,New experiment,NA,0,0,0,yes,1024
undefined,undefined,undefined,undefined,black,no,legacy,0,uniform,undefined,undefined,undefined,62,62,125,62,62,NA,62,62,0,0,0,62,62,0,62,0,NA,62,0,Fri 14 Jun 2019 11:50:12 AM PDT,500,1000,The main experiment item,yes,NA,ABX_v3.osexp,/home/ubuntu/Desktop/panara,yes,no,mono,no,18,no,white,no,yes,768,8,53,/home/ubuntu/Desktop/panara/subject-107.csv,Jazzy James,3.1.3,2.1.3.wav,2.1.1.wav,1.1.1.wav,0,0,space,0,NA,489,3522,489,NA,11215915,space,2,1024,2,48000,-16,experiment,1.1.1.wav,2.1.3.wav,2.1.1.wav,107,odd,11581645,11584149,11583649,11582897,11514464,NA,11580644,11584933,734,NA,NA,11580642,11585422,11538357,11580642,11216651,NA,11580645,736,New experiment,NA,0,0,0,yes,1024
undefined,undefined,undefined,undefined,black,no,legacy,0,uniform,undefined,undefined,undefined,63,63,127,63,63,NA,63,63,0,0,0,63,63,0,63,0,NA,63,0,Fri 14 Jun 2019 11:50:12 AM PDT,500,1000,The main experiment item,yes,NA,ABX_v3.osexp,/home/ubuntu/Desktop/panara,no,no,mono,no,18,no,white,no,yes,768,9,53,/home/ubuntu/Desktop/panara/subject-107.csv,Jazzy James,3.1.3,3.2.2.wav,3.2.4.wav,3.1.4.wav,0,0,space,0,NA,589,3522,589,NA,11215915,space,2,1024,2,48000,-16,experiment,3.2.2.wav,3.1.4.wav,3.2.4.wav,107,odd,11586599,11589133,11588633,11587882,11514464,NA,11585599,11589929,734,NA,NA,11585597,11590518,11538357,11585597,11216651,NA,11585599,736,New experiment,NA,0,0,0,yes,1024
undefined,undefined,undefined,undefined,black,no,legacy,0,uniform,undefined,undefined,undefined,64,64,129,64,64,NA,64,64,0,0,0,64,64,0,64,0,NA,64,0,Fri 14 Jun 2019 11:50:12 AM PDT,500,1000,The main experiment item,yes,NA,ABX_v3.osexp,/home/ubuntu/Desktop/panara,no,no,mono,no,18,no,white,no,yes,768,10,53,/home/ubuntu/Desktop/panara/subject-107.csv,Jazzy James,3.1.3,3.2.3.wav,3.2.5.wav,1.2.5.wav,0,1,space,1,NA,624,3522,624,NA,11215915,space,2,1024,2,48000,-16,experiment,3.2.3.wav,1.2.5.wav,3.2.5.wav,107,odd,11591695,11594238,11593738,11592958,11514464,NA,11590695,11595021,734,NA,NA,11590692,11595646,11538357,11590692,11216651,NA,11590695,736,New experiment,NA,0,0,0,yes,1024
undefined,undefined,undefined,undefined,black,no,legacy,0,uniform,undefined,undefined,undefined,65,65,131,65,65,NA,65,65,0,0,0,65,65,0,65,0,NA,65,0,Fri 14 Jun 2019 11:50:12 AM PDT,500,1000,The main experiment item,yes,NA,ABX_v3.osexp,/home/ubuntu/Desktop/panara,no,no,mono,no,18,no,white,no,yes,768,11,53,/home/ubuntu/Desktop/panara/subject-107.csv,Jazzy James,3.1.3,1.2.2.wav,1.2.4.wav,3.2.4.wav,0,1,space,1,NA,1229,3522,1229,NA,11215915,space,2,1024,2,48000,-16,experiment,1.2.2.wav,3.2.4.wav,1.2.4.wav,107,odd,11596821,11599351,11598851,11598101,11514464,NA,11595820,11600104,734,NA,NA,11595818,11601334,11538357,11595818,11216651,NA,11595821,736,New experiment,NA,0,0,0,yes,1024
undefined,undefined,undefined,undefined,black,no,legacy,0,uniform,undefined,undefined,undefined,66,66,133,66,66,NA,66,66,0,0,0,66,66,0,66,0,NA,66,0,Fri 14 Jun 2019 11:50:12 AM PDT,500,1000,The main experiment item,yes,NA,ABX_v3.osexp,/home/ubuntu/Desktop/panara,yes,no,mono,no,18,no,white,no,yes,768,12,53,/home/ubuntu/Desktop/panara/subject-107.csv,Jazzy James,3.1.3,3.1.3.wav,1.1.3.wav,1.1.1.wav,0,0,space,0,NA,574,3522,574,NA,11215915,space,2,1024,2,48000,-16,experiment,1.1.1.wav,3.1.3.wav,1.1.3.wav,107,odd,11602496,11605069,11604569,11603759,11514464,NA,11601496,11605879,734,NA,NA,11601493,11606453,11538357,11601493,11216651,NA,11601496,736,New experiment,NA,0,0,0,yes,1024
undefined,undefined,undefined,undefined,black,no,legacy,0,uniform,undefined,undefined,undefined,67,67,135,67,67,NA,67,67,0,0,0,67,67,0,67,0,NA,67,0,Fri 14 Jun 2019 11:50:12 AM PDT,500,1000,The main experiment item,yes,NA,ABX_v3.osexp,/home/ubuntu/Desktop/panara,no,no,mono,no,18,no,white,no,yes,768,13,53,/home/ubuntu/Desktop/panara/subject-107.csv,Jazzy James,3.1.3,4.1.3.wav,4.2.3.wav,4.2.5.wav,0,1,space,1,NA,1383,3522,1383,NA,11215915,space,2,1024,2,48000,-16,experiment,4.1.3.wav,4.2.5.wav,4.2.3.wav,107,odd,11607613,11610089,11609589,11608836,11514464,NA,11606612,11610813,734,NA,NA,11606610,11612197,11538357,11606610,11216651,NA,11606613,736,New experiment,NA,0,0,0,yes,1024
undefined,undefined,undefined,undefined,black,no,legacy,0,uniform,undefined,undefined,undefined,68,68,137,68,68,NA,68,68,0,0,0,68,68,0,68,0,NA,68,0,Fri 14 Jun 2019 11:50:12 AM PDT,500,1000,The main experiment item,yes,NA,ABX_v3.osexp,/home/ubuntu/Desktop/panara,no,no,mono,no,18,no,white,no,yes,768,14,53,/home/ubuntu/Desktop/panara/subject-107.csv,Jazzy James,3.1.3,2.2.1.wav,2.2.3.wav,4.2.3.wav,0,0,space,0,NA,3314,3522,3314,NA,11215915,space,2,1024,2,48000,-16,experiment,2.2.1.wav,4.2.3.wav,2.2.3.wav,107,odd,11613347,11615833,11615333,11614611,11514464,NA,11612347,11616602,734,NA,NA,11612345,11619917,11538357,11612345,11216651,NA,11612347,736,New experiment,NA,0,0,0,yes,1024
undefined,undefined,undefined,undefined,black,no,legacy,0,uniform,undefined,undefined,undefined,69,69,139,69,69,NA,69,69,0,0,0,69,69,0,69,0,NA,69,0,Fri 14 Jun 2019 11:50:12 AM PDT,500,1000,The main experiment item,yes,NA,ABX_v3.osexp,/home/ubuntu/Desktop/panara,no,no,mono,no,18,no,white,no,yes,768,15,53,/home/ubuntu/Desktop/panara/subject-107.csv,Jazzy James,3.1.3,1.2.1.wav,1.1.1.wav,1.1.3.wav,0,1,space,1,NA,854,3522,854,NA,11215915,space,2,1024,2,48000,-16,experiment,1.2.1.wav,1.1.3.wav,1.1.1.wav,107,odd,11621102,11623673,11623173,11622349,11514464,NA,11620101,11624446,734,NA,NA,11620099,11625300,11538357,11620099,11216651,NA,11620102,736,New experiment,NA,0,0,0,yes,1024
undefined,undefined,undefined,undefined,black,no,legacy,0,uniform,undefined,undefined,undefined,70,70,141,70,70,NA,70,70,0,0,0,70,70,0,70,0,NA,70,0,Fri 14 Jun 2019 11:50:12 AM PDT,500,1000,The main experiment item,yes,NA,ABX_v3.osexp,/home/ubuntu/Desktop/panara,no,no,mono,no,18,no,white,no,yes,768,16,53,/home/ubuntu/Desktop/panara/subject-107.csv,Jazzy James,3.1.3,3.2.2.wav,3.2.4.wav,1.2.4.wav,0,1,space,1,NA,764,3522,764,NA,11215915,space,2,1024,2,48000,-16,experiment,3.2.2.wav,1.2.4.wav,3.2.4.wav,107,odd,11626465,11629000,11628500,11627768,11514464,NA,11625464,11629767,734,NA,NA,11625461,11630532,11538357,11625461,11216651,NA,11625465,736,New experiment,NA,0,0,0,yes,1024
undefined,undefined,undefined,undefined,black,no,legacy,0,uniform,undefined,undefined,undefined,71,71,143,71,71,NA,71,71,0,0,0,71,71,0,71,0,NA,71,0,Fri 14 Jun 2019 11:50:12 AM PDT,500,1000,The main experiment item,yes,NA,ABX_v3.osexp,/home/ubuntu/Desktop/panara,yes,no,mono,no,18,no,white,no,yes,768,17,53,/home/ubuntu/Desktop/panara/subject-107.csv,Jazzy James,3.1.3,4.1.4.wav,4.1.2.wav,2.1.2.wav,0,1,space,1,NA,806,3522,806,NA,11215915,space,2,1024,2,48000,-16,experiment,2.1.2.wav,4.1.4.wav,4.1.2.wav,107,odd,11631704,11634164,11633664,11632948,11514464,NA,11630703,11634925,734,NA,NA,11630701,11635732,11538357,11630701,11216651,NA,11630704,736,New experiment,NA,0,0,0,yes,1024
undefined,undefined,undefined,undefined,black,no,legacy,0,uniform,undefined,undefined,undefined,72,72,145,72,72,NA,72,72,0,0,0,72,72,0,72,0,NA,72,0,Fri 14 Jun 2019 11:50:12 AM PDT,500,1000,The main experiment item,yes,NA,ABX_v3.osexp,/home/ubuntu/Desktop/panara,no,no,mono,no,18,no,white,no,yes,768,18,53,/home/ubuntu/Desktop/panara/subject-107.csv,Jazzy James,3.1.3,3.2.3.wav,1.2.3.wav,1.2.5.wav,0,0,space,0,NA,533,3522,533,NA,11215915,space,2,1024,2,48000,-16,experiment,3.2.3.wav,1.2.5.wav,1.2.3.wav,107,odd,11636899,11639394,11638894,11638137,11514464,NA,11635899,11640158,734,NA,NA,11635897,11640691,11538357,11635897,11216651,NA,11635899,736,New experiment,NA,0,0,0,yes,1024
undefined,undefined,undefined,undefined,black,no,legacy,0,uniform,undefined,undefined,undefined,73,73,147,73,73,NA,73,73,0,0,0,73,73,0,73,0,NA,73,0,Fri 14 Jun 2019 11:50:12 AM PDT,500,1000,The main experiment item,yes,NA,ABX_v3.osexp,/home/ubuntu/Desktop/panara,yes,no,mono,no,18,no,white,no,yes,768,19,53,/home/ubuntu/Desktop/panara/subject-107.csv,Jazzy James,3.1.3,4.2.4.wav,4.2.2.wav,4.1.2.wav,0,0,space,0,NA,1377,3522,1377,NA,11215915,space,2,1024,2,48000,-16,experiment,4.1.2.wav,4.2.4.wav,4.2.2.wav,107,odd,11641900,11644360,11643860,11643149,11514464,NA,11640899,11645105,734,NA,NA,11640896,11646483,11538357,11640896,11216651,NA,11640900,736,New experiment,NA,0,0,0,yes,1024
undefined,undefined,undefined,undefined,black,no,legacy,0,uniform,undefined,undefined,undefined,74,74,149,74,74,NA,74,74,0,0,0,74,74,0,74,0,NA,74,0,Fri 14 Jun 2019 11:50:12 AM PDT,500,1000,The main experiment item,yes,NA,ABX_v3.osexp,/home/ubuntu/Desktop/panara,yes,no,mono,no,18,no,white,no,yes,768,20,53,/home/ubuntu/Desktop/panara/subject-107.csv,Jazzy James,3.1.3,2.2.4.wav,2.1.4.wav,2.1.2.wav,0,1,space,1,NA,1165,3522,1165,NA,11215915,space,2,1024,2,48000,-16,experiment,2.1.2.wav,2.2.4.wav,2.1.4.wav,107,odd,11647657,11650123,11649623,11648887,11514464,NA,11646656,11650876,734,NA,NA,11646654,11652042,11538357,11646654,11216651,NA,11646657,736,New experiment,NA,0,0,0,yes,1024
undefined,undefined,undefined,undefined,black,no,legacy,0,uniform,undefined,undefined,undefined,75,75,151,75,75,NA,75,75,0,0,0,75,75,0,75,0,NA,75,0,Fri 14 Jun 2019 11:50:12 AM PDT,500,1000,The main experiment item,yes,NA,ABX_v3.osexp,/home/ubuntu/Desktop/panara,yes,no,mono,no,18,no,white,no,yes,768,21,53,/home/ubuntu/Desktop/panara/subject-107.csv,Jazzy James,3.1.3,1.1.3.wav,1.1.1.wav,3.1.1.wav,0,1,space,1,NA,974,3522,974,NA,11215915,space,2,1024,2,48000,-16,experiment,3.1.1.wav,1.1.3.wav,1.1.1.wav,107,odd,11653224,11655815,11655315,11654509,11514464,NA,11652224,11656580,734,NA,NA,11652221,11657554,11538357,11652221,11216651,NA,11652224,736,New experiment,NA,0,0,0,yes,1024
undefined,undefined,undefined,undefined,black,no,legacy,0,uniform,undefined,undefined,undefined,76,76,153,76,76,NA,76,76,0,0,0,76,76,0,76,0,NA,76,0,Fri 14 Jun 2019 11:50:12 AM PDT,500,1000,The main experiment item,yes,NA,ABX_v3.osexp,/home/ubuntu/Desktop/panara,no,no,mono,no,18,no,white,no,yes,768,22,53,/home/ubuntu/Desktop/panara/subject-107.csv,Jazzy James,3.1.3,1.2.2.wav,1.2.4.wav,1.1.4.wav,0,0,space,0,NA,921,3522,921,NA,11215915,space,2,1024,2,48000,-16,experiment,1.2.2.wav,1.1.4.wav,1.2.4.wav,107,odd,11658723,11661255,11660755,11660014,11514464,NA,11657723,11662040,734,NA,NA,11657720,11662962,11538357,11657720,11216651,NA,11657723,736,New experiment,NA,0,0,0,yes,1024
undefined,undefined,undefined,undefined,black,no,legacy,0,uniform,undefined,undefined,undefined,77,77,155,77,77,NA,77,77,0,0,0,77,77,0,77,0,NA,77,0,Fri 14 Jun 2019 11:50:12 AM PDT,500,1000,The main experiment item,yes,NA,ABX_v3.osexp,/home/ubuntu/Desktop/panara,no,no,mono,no,18,no,white,no,yes,768,23,53,/home/ubuntu/Desktop/panara/subject-107.csv,Jazzy James,3.1.3,3.2.3.wav,4.2.3.wav,4.2.5.wav,0,1,space,1,NA,1092,3522,1092,NA,11215915,space,2,1024,2,48000,-16,experiment,3.2.3.wav,4.2.5.wav,4.2.3.wav,107,odd,11664133,11666636,11666136,11665380,11514464,NA,11663133,11667349,734,NA,NA,11663130,11668442,11538357,11663130,11216651,NA,11663133,736,New experiment,NA,0,0,0,yes,1024
undefined,undefined,undefined,undefined,black,no,legacy,0,uniform,undefined,undefined,undefined,78,78,157,78,78,NA,78,78,0,0,0,78,78,0,78,0,NA,78,0,Fri 14 Jun 2019 11:50:12 AM PDT,500,1000,The main experiment item,yes,NA,ABX_v3.osexp,/home/ubuntu/Desktop/panara,no,no,mono,no,18,no,white,no,yes,768,24,53,/home/ubuntu/Desktop/panara/subject-107.csv,Jazzy James,3.1.3,1.1.3.wav,2.1.3.wav,2.1.5.wav,0,1,space,1,NA,1109,3522,1109,NA,11215915,space,2,1024,2,48000,-16,experiment,1.1.3.wav,2.1.5.wav,2.1.3.wav,107,odd,11669614,11672181,11671681,11670936,11514464,NA,11668613,11672963,734,NA,NA,11668610,11674072,11538357,11668610,11216651,NA,11668614,736,New experiment,NA,0,0,0,yes,1024
undefined,undefined,undefined,undefined,black,no,legacy,0,uniform,undefined,undefined,undefined,79,79,159,79,79,NA,79,79,0,0,0,79,79,0,79,0,NA,79,0,Fri 14 Jun 2019 11:50:12 AM PDT,500,1000,The main experiment item,yes,NA,ABX_v3.osexp,/home/ubuntu/Desktop/panara,no,no,mono,no,18,no,white,no,yes,768,25,53,/home/ubuntu/Desktop/panara/subject-107.csv,Jazzy James,3.1.3,1.1.1.wav,1.1.3.wav,1.2.3.wav,0,0,space,0,NA,1280,3522,1280,NA,11215915,space,2,1024,2,48000,-16,experiment,1.1.1.wav,1.2.3.wav,1.1.3.wav,107,odd,11675265,11677868,11677368,11676598,11514464,NA,11674265,11678633,734,NA,NA,11674262,11679913,11538357,11674262,11216651,NA,11674265,736,New experiment,NA,0,0,0,yes,1024
undefined,undefined,undefined,undefined,black,no,legacy,0,uniform,undefined,undefined,undefined,80,80,161,80,80,NA,80,80,0,0,0,80,80,0,80,0,NA,80,0,Fri 14 Jun 2019 11:50:12 AM PDT,500,1000,The main experiment item,yes,NA,ABX_v3.osexp,/home/ubuntu/Desktop/panara,no,no,mono,no,18,no,white,no,yes,768,26,53,/home/ubuntu/Desktop/panara/subject-107.csv,Jazzy James,3.1.3,1.2.3.wav,1.1.3.wav,1.1.5.wav,0,0,space,0,NA,1101,3522,1101,NA,11215915,space,2,1024,2,48000,-16,experiment,1.2.3.wav,1.1.5.wav,1.1.3.wav,107,odd,11681092,11683646,11683146,11682366,11514464,NA,11680092,11684411,734,NA,NA,11680090,11685513,11538357,11680090,11216651,NA,11680092,736,New experiment,NA,0,0,0,yes,1024
undefined,undefined,undefined,undefined,black,no,legacy,0,uniform,undefined,undefined,undefined,81,81,163,81,81,NA,81,81,0,0,0,81,81,0,81,0,NA,81,0,Fri 14 Jun 2019 11:50:12 AM PDT,500,1000,The main experiment item,yes,NA,ABX_v3.osexp,/home/ubuntu/Desktop/panara,yes,no,mono,no,18,no,white,no,yes,768,27,53,/home/ubuntu/Desktop/panara/subject-107.csv,Jazzy James,3.1.3,3.1.3.wav,3.1.1.wav,1.1.1.wav,0,1,space,1,NA,836,3522,836,NA,11215915,space,2,1024,2,48000,-16,experiment,1.1.1.wav,3.1.3.wav,3.1.1.wav,107,odd,11686642,11689149,11688649,11687897,11514464,NA,11685642,11689932,734,NA,NA,11685640,11690769,11538357,11685640,11216651,NA,11685642,736,New experiment,NA,0,0,0,yes,1024
undefined,undefined,undefined,undefined,black,no,legacy,0,uniform,undefined,undefined,undefined,82,82,165,82,82,NA,82,82,0,0,0,82,82,0,82,0,NA,82,0,Fri 14 Jun 2019 11:50:12 AM PDT,500,1000,The main experiment item,yes,NA,ABX_v3.osexp,/home/ubuntu/Desktop/panara,yes,no,mono,no,18,no,white,no,yes,768,28,53,/home/ubuntu/Desktop/panara/subject-107.csv,Jazzy James,3.1.3,3.2.4.wav,3.2.2.wav,1.2.2.wav,0,1,space,1,NA,1119,3522,1119,NA,11215915,space,2,1024,2,48000,-16,experiment,1.2.2.wav,3.2.4.wav,3.2.2.wav,107,odd,11691966,11694496,11693996,11693217,11514464,NA,11690966,11695265,734,NA,NA,11690963,11696384,11538357,11690963,11216651,NA,11690966,736,New experiment,NA,0,0,0,yes,1024
undefined,undefined,undefined,undefined,black,no,legacy,0,uniform,undefined,undefined,undefined,83,83,167,83,83,NA,83,83,0,0,0,83,83,0,83,0,NA,83,0,Fri 14 Jun 2019 11:50:12 AM PDT,500,1000,The main experiment item,yes,NA,ABX_v3.osexp,/home/ubuntu/Desktop/panara,yes,no,mono,no,18,no,white,no,yes,768,29,53,/home/ubuntu/Desktop/panara/subject-107.csv,Jazzy James,3.1.3,2.2.3.wav,2.2.1.wav,2.1.1.wav,0,0,space,0,NA,1169,3522,1169,NA,11215915,space,2,1024,2,48000,-16,experiment,2.1.1.wav,2.2.3.wav,2.2.1.wav,107,odd,11697562,11700029,11699529,11698776,11514464,NA,11696562,11700782,734,NA,NA,11696559,11701952,11538357,11696559,11216651,NA,11696562,736,New experiment,NA,0,0,0,yes,1024
undefined,undefined,undefined,undefined,black,no,legacy,0,uniform,undefined,undefined,undefined,84,84,169,84,84,NA,84,84,0,0,0,84,84,0,84,0,NA,84,0,Fri 14 Jun 2019 11:50:12 AM PDT,500,1000,The main experiment item,yes,NA,ABX_v3.osexp,/home/ubuntu/Desktop/panara,no,no,mono,no,18,no,white,no,yes,768,30,53,/home/ubuntu/Desktop/panara/subject-107.csv,Jazzy James,3.1.3,4.1.1.wav,4.1.3.wav,3.1.3.wav,0,1,space,1,NA,864,3522,864,NA,11215915,space,2,1024,2,48000,-16,experiment,4.1.1.wav,3.1.3.wav,4.1.3.wav,107,odd,11703135,11705603,11705102,11704381,11514464,NA,11702134,11706359,734,NA,NA,11702131,11707224,11538357,11702131,11216651,NA,11702134,736,New experiment,NA,0,0,0,yes,1024
undefined,undefined,undefined,undefined,black,no,legacy,0,uniform,undefined,undefined,undefined,85,85,171,85,85,NA,85,85,0,0,0,85,85,0,85,0,NA,85,0,Fri 14 Jun 2019 11:50:12 AM PDT,500,1000,The main experiment item,yes,NA,ABX_v3.osexp,/home/ubuntu/Desktop/panara,no,no,mono,no,18,no,white,no,yes,768,31,53,/home/ubuntu/Desktop/panara/subject-107.csv,Jazzy James,3.1.3,3.1.1.wav,3.1.3.wav,3.2.3.wav,0,0,space,0,NA,1045,3522,1045,NA,11215915,space,2,1024,2,48000,-16,experiment,3.1.1.wav,3.2.3.wav,3.1.3.wav,107,odd,11708442,11710944,11710444,11709697,11514464,NA,11707442,11711698,734,NA,NA,11707440,11712743,11538357,11707440,11216651,NA,11707442,736,New experiment,NA,0,0,0,yes,1024
undefined,undefined,undefined,undefined,black,no,legacy,0,uniform,undefined,undefined,undefined,86,86,173,86,86,NA,86,86,0,0,0,86,86,0,86,0,NA,86,0,Fri 14 Jun 2019 11:50:12 AM PDT,500,1000,The main experiment item,yes,NA,ABX_v3.osexp,/home/ubuntu/Desktop/panara,yes,no,mono,no,18,no,white,no,yes,768,32,53,/home/ubuntu/Desktop/panara/subject-107.csv,Jazzy James,3.1.3,1.2.4.wav,1.1.4.wav,1.1.2.wav,0,1,space,1,NA,1460,3522,1460,NA,11215915,space,2,1024,2,48000,-16,experiment,1.1.2.wav,1.2.4.wav,1.1.4.wav,107,odd,11713946,11716476,11715976,11715196,11514464,NA,11712945,11717258,734,NA,NA,11712943,11718719,11538357,11712943,11216651,NA,11712946,736,New experiment,NA,0,0,0,yes,1024
undefined,undefined,undefined,undefined,black,no,legacy,0,uniform,undefined,undefined,undefined,87,87,175,87,87,NA,87,87,0,0,0,87,87,0,87,0,NA,87,0,Fri 14 Jun 2019 11:50:12 AM PDT,500,1000,The main experiment item,yes,NA,ABX_v3.osexp,/home/ubuntu/Desktop/panara,no,no,mono,no,18,no,white,no,yes,768,33,53,/home/ubuntu/Desktop/panara/subject-107.csv,Jazzy James,3.1.3,1.2.2.wav,2.2.2.wav,2.2.4.wav,0,1,space,1,NA,881,3522,881,NA,11215915,space,2,1024,2,48000,-16,experiment,1.2.2.wav,2.2.4.wav,2.2.2.wav,107,odd,11719924,11722434,11721934,11721212,11514464,NA,11718924,11723188,734,NA,NA,11718921,11724070,11538357,11718921,11216651,NA,11718924,736,New experiment,NA,0,0,0,yes,1024
undefined,undefined,undefined,undefined,black,no,legacy,0,uniform,undefined,undefined,undefined,88,88,177,88,88,NA,88,88,0,0,0,88,88,0,88,0,NA,88,0,Fri 14 Jun 2019 11:50:12 AM PDT,500,1000,The main experiment item,yes,NA,ABX_v3.osexp,/home/ubuntu/Desktop/panara,no,no,mono,no,18,no,white,no,yes,768,34,53,/home/ubuntu/Desktop/panara/subject-107.csv,Jazzy James,3.1.3,2.2.1.wav,2.2.3.wav,2.1.3.wav,0,0,space,0,NA,1282,3522,1282,NA,11215915,space,2,1024,2,48000,-16,experiment,2.2.1.wav,2.1.3.wav,2.2.3.wav,107,odd,11725281,11727746,11727246,11726522,11514464,NA,11724281,11728500,734,NA,NA,11724278,11729782,11538357,11724278,11216651,NA,11724281,736,New experiment,NA,0,0,0,yes,1024
undefined,undefined,undefined,undefined,black,no,legacy,0,uniform,undefined,undefined,undefined,89,89,179,89,89,NA,89,89,0,0,0,89,89,0,89,0,NA,89,0,Fri 14 Jun 2019 11:50:12 AM PDT,500,1000,The main experiment item,yes,NA,ABX_v3.osexp,/home/ubuntu/Desktop/panara,no,no,mono,no,18,no,white,no,yes,768,35,53,/home/ubuntu/Desktop/panara/subject-107.csv,Jazzy James,3.1.3,4.2.3.wav,2.2.3.wav,2.2.5.wav,0,0,space,0,NA,864,3522,864,NA,11215915,space,2,1024,2,48000,-16,experiment,4.2.3.wav,2.2.5.wav,2.2.3.wav,107,odd,11731014,11733519,11733019,11732268,11514464,NA,11730013,11734245,734,NA,NA,11730010,11735110,11538357,11730010,11216651,NA,11730014,736,New experiment,NA,0,0,0,yes,1024
undefined,undefined,undefined,undefined,black,no,legacy,0,uniform,undefined,undefined,undefined,90,90,181,90,90,NA,90,90,0,0,0,90,90,0,90,0,NA,90,0,Fri 14 Jun 2019 11:50:12 AM PDT,500,1000,The main experiment item,yes,NA,ABX_v3.osexp,/home/ubuntu/Desktop/panara,yes,no,mono,no,18,no,white,no,yes,768,36,53,/home/ubuntu/Desktop/panara/subject-107.csv,Jazzy James,3.1.3,4.2.3.wav,4.1.3.wav,4.1.1.wav,0,1,space,1,NA,1137,3522,1137,NA,11215915,space,2,1024,2,48000,-16,experiment,4.1.1.wav,4.2.3.wav,4.1.3.wav,107,odd,11736302,11738769,11738269,11737552,11514464,NA,11735302,11739492,734,NA,NA,11735299,11740630,11538357,11735299,11216651,NA,11735302,736,New experiment,NA,0,0,0,yes,1024
undefined,undefined,undefined,undefined,black,no,legacy,0,uniform,undefined,undefined,undefined,91,91,183,91,91,NA,91,91,0,0,0,91,91,0,91,0,NA,91,0,Fri 14 Jun 2019 11:50:12 AM PDT,500,1000,The main experiment item,yes,NA,ABX_v3.osexp,/home/ubuntu/Desktop/panara,no,no,mono,no,18,no,white,no,yes,768,37,53,/home/ubuntu/Desktop/panara/subject-107.csv,Jazzy James,3.1.3,3.2.2.wav,1.2.2.wav,1.2.4.wav,0,0,space,0,NA,571,3522,571,NA,11215915,space,2,1024,2,48000,-16,experiment,3.2.2.wav,1.2.4.wav,1.2.2.wav,107,odd,11741825,11744384,11743884,11743104,11514464,NA,11740825,11745146,734,NA,NA,11740822,11745717,11538357,11740822,11216651,NA,11740825,736,New experiment,NA,0,0,0,yes,1024
undefined,undefined,undefined,undefined,black,no,legacy,0,uniform,undefined,undefined,undefined,92,92,185,92,92,NA,92,92,0,0,0,92,92,0,92,0,NA,92,0,Fri 14 Jun 2019 11:50:12 AM PDT,500,1000,The main experiment item,yes,NA,ABX_v3.osexp,/home/ubuntu/Desktop/panara,no,no,mono,no,18,no,white,no,yes,768,38,53,/home/ubuntu/Desktop/panara/subject-107.csv,Jazzy James,3.1.3,4.2.1.wav,3.2.1.wav,3.2.3.wav,0,1,space,1,NA,1370,3522,1370,NA,11215915,space,2,1024,2,48000,-16,experiment,4.2.1.wav,3.2.3.wav,3.2.1.wav,107,odd,11746918,11749396,11748896,11748140,11514464,NA,11745918,11750154,734,NA,NA,11745915,11751525,11538357,11745915,11216651,NA,11745918,736,New experiment,NA,0,0,0,yes,1024
undefined,undefined,undefined,undefined,black,no,legacy,0,uniform,undefined,undefined,undefined,93,93,187,93,93,NA,93,93,0,0,0,93,93,0,93,0,NA,93,0,Fri 14 Jun 2019 11:50:12 AM PDT,500,1000,The main experiment item,yes,NA,ABX_v3.osexp,/home/ubuntu/Desktop/panara,no,no,mono,no,18,no,white,no,yes,768,39,53,/home/ubuntu/Desktop/panara/subject-107.csv,Jazzy James,3.1.3,1.1.3.wav,1.1.5.wav,1.2.5.wav,0,0,space,0,NA,519,3522,519,NA,11215915,space,2,1024,2,48000,-16,experiment,1.1.3.wav,1.2.5.wav,1.1.5.wav,107,odd,11752752,11755336,11754836,11754056,11514464,NA,11751751,11756117,734,NA,NA,11751749,11756637,11538357,11751749,11216651,NA,11751752,736,New experiment,NA,0,0,0,yes,1024
undefined,undefined,undefined,undefined,black,no,legacy,0,uniform,undefined,undefined,undefined,94,94,189,94,94,NA,94,94,0,0,0,94,94,0,94,0,NA,94,0,Fri 14 Jun 2019 11:50:12 AM PDT,500,1000,The main experiment item,yes,NA,ABX_v3.osexp,/home/ubuntu/Desktop/panara,no,no,mono,no,18,no,white,no,yes,768,40,53,/home/ubuntu/Desktop/panara/subject-107.csv,Jazzy James,3.1.3,4.2.3.wav,3.2.3.wav,3.2.5.wav,0,0,space,0,NA,1462,3522,1462,NA,11215915,space,2,1024,2,48000,-16,experiment,4.2.3.wav,3.2.5.wav,3.2.3.wav,107,odd,11757829,11760320,11759820,11759082,11514464,NA,11756828,11761102,734,NA,NA,11756826,11762565,11538357,11756826,11216651,NA,11756829,736,New experiment,NA,0,0,0,yes,1024
undefined,undefined,undefined,undefined,black,no,legacy,0,uniform,undefined,undefined,undefined,95,95,191,95,95,NA,95,95,0,0,0,95,95,0,95,0,NA,95,0,Fri 14 Jun 2019 11:50:12 AM PDT,500,1000,The main experiment item,yes,NA,ABX_v3.osexp,/home/ubuntu/Desktop/panara,yes,no,mono,no,18,no,white,no,yes,768,41,53,/home/ubuntu/Desktop/panara/subject-107.csv,Jazzy James,3.1.3,1.2.3.wav,1.2.1.wav,2.2.1.wav,0,0,space,0,NA,823,3522,823,NA,11215915,space,2,1024,2,48000,-16,experiment,2.2.1.wav,1.2.3.wav,1.2.1.wav,107,odd,11763772,11766329,11765829,11765055,11514464,NA,11762771,11767053,734,NA,NA,11762769,11767876,11538357,11762769,11216651,NA,11762772,736,New experiment,NA,0,0,0,yes,1024
undefined,undefined,undefined,undefined,black,no,legacy,0,uniform,undefined,undefined,undefined,96,96,193,96,96,NA,96,96,0,0,0,96,96,0,96,0,NA,96,0,Fri 14 Jun 2019 11:50:12 AM PDT,500,1000,The main experiment item,yes,NA,ABX_v3.osexp,/home/ubuntu/Desktop/panara,yes,no,mono,no,18,no,white,no,yes,768,42,53,/home/ubuntu/Desktop/panara/subject-107.csv,Jazzy James,3.1.3,4.2.4.wav,2.2.4.wav,2.2.2.wav,0,0,space,0,NA,717,3522,717,NA,11215915,space,2,1024,2,48000,-16,experiment,2.2.2.wav,4.2.4.wav,2.2.4.wav,107,odd,11769055,11771513,11771013,11770290,11514464,NA,11768055,11772238,734,NA,NA,11768052,11772956,11538357,11768052,11216651,NA,11768055,736,New experiment,NA,0,0,0,yes,1024
undefined,undefined,undefined,undefined,black,no,legacy,0,uniform,undefined,undefined,undefined,97,97,195,97,97,NA,97,97,0,0,0,97,97,0,97,0,NA,97,0,Fri 14 Jun 2019 11:50:12 AM PDT,500,1000,The main experiment item,yes,NA,ABX_v3.osexp,/home/ubuntu/Desktop/panara,no,no,mono,no,18,no,white,no,yes,768,43,53,/home/ubuntu/Desktop/panara/subject-107.csv,Jazzy James,3.1.3,3.2.3.wav,3.2.5.wav,3.1.5.wav,0,1,space,1,NA,1020,3522,1020,NA,11215915,space,2,1024,2,48000,-16,experiment,3.2.3.wav,3.1.5.wav,3.2.5.wav,107,odd,11774147,11776681,11776181,11775401,11514464,NA,11773147,11777463,734,NA,NA,11773145,11778484,11538357,11773145,11216651,NA,11773147,736,New experiment,NA,0,0,0,yes,1024
undefined,undefined,undefined,undefined,black,no,legacy,0,uniform,undefined,undefined,undefined,98,98,197,98,98,NA,98,98,0,0,0,98,98,0,98,0,NA,98,0,Fri 14 Jun 2019 11:50:12 AM PDT,500,1000,The main experiment item,yes,NA,ABX_v3.osexp,/home/ubuntu/Desktop/panara,no,no,mono,no,18,no,white,no,yes,768,44,53,/home/ubuntu/Desktop/panara/subject-107.csv,Jazzy James,3.1.3,3.2.1.wav,4.2.1.wav,4.2.3.wav,0,1,space,1,NA,1446,3522,1446,NA,11215915,space,2,1024,2,48000,-16,experiment,3.2.1.wav,4.2.3.wav,4.2.1.wav,107,odd,11779649,11782116,11781616,11780893,11514464,NA,11778648,11782869,734,NA,NA,11778645,11784315,11538357,11778645,11216651,NA,11778649,736,New experiment,NA,0,0,0,yes,1024
undefined,undefined,undefined,undefined,black,no,legacy,0,uniform,undefined,undefined,undefined,99,99,199,99,99,NA,99,99,0,0,0,99,99,0,99,0,NA,99,0,Fri 14 Jun 2019 11:50:12 AM PDT,500,1000,The main experiment item,yes,NA,ABX_v3.osexp,/home/ubuntu/Desktop/panara,yes,no,mono,no,18,no,white,no,yes,768,45,53,/home/ubuntu/Desktop/panara/subject-107.csv,Jazzy James,3.1.3,2.1.4.wav,4.1.4.wav,4.1.2.wav,0,0,space,0,NA,652,3522,652,NA,11215915,space,2,1024,2,48000,-16,experiment,4.1.2.wav,2.1.4.wav,4.1.4.wav,107,odd,11785506,11787987,11787487,11786765,11514464,NA,11784505,11788742,734,NA,NA,11784503,11789395,11538357,11784503,11216651,NA,11784506,736,New experiment,NA,0,0,0,yes,1024
undefined,undefined,undefined,undefined,black,no,legacy,0,uniform,undefined,undefined,undefined,100,100,201,100,100,NA,100,100,0,0,0,100,100,0,100,0,NA,100,0,Fri 14 Jun 2019 11:50:12 AM PDT,500,1000,The main experiment item,yes,NA,ABX_v3.osexp,/home/ubuntu/Desktop/panara,no,no,mono,no,18,no,white,no,yes,768,46,53,/home/ubuntu/Desktop/panara/subject-107.csv,Jazzy James,3.1.3,1.1.2.wav,1.1.4.wav,2.1.4.wav,0,1,0,1,NA,85,1386,85,NA,11215915,space,2,1024,2,48000,-16,experiment,1.1.2.wav,2.1.4.wav,1.1.4.wav,107,odd,11791966,11794521,11794021,11793250,11789576,NA,11790966,11795277,734,NA,NA,11789574,11795363,11538357,11789573,11216651,NA,11790966,736,New experiment,NA,0,0,0,yes,1024
undefined,undefined,undefined,undefined,black,no,legacy,0,uniform,undefined,undefined,undefined,101,101,203,101,101,NA,101,101,0,0,0,101,101,0,101,0,NA,101,0,Fri 14 Jun 2019 11:50:12 AM PDT,500,1000,The main experiment item,yes,NA,ABX_v3.osexp,/home/ubuntu/Desktop/panara,no,no,mono,no,18,no,white,no,yes,768,47,53,/home/ubuntu/Desktop/panara/subject-107.csv,Jazzy James,3.1.3,4.2.2.wav,2.2.2.wav,2.2.4.wav,0,0,0,0,NA,599,1386,599,NA,11215915,space,2,1024,2,48000,-16,experiment,4.2.2.wav,2.2.4.wav,2.2.2.wav,107,odd,11796552,11799030,11798530,11797805,11789576,NA,11795552,11799755,734,NA,NA,11795549,11800354,11538357,11795549,11216651,NA,11795552,736,New experiment,NA,0,0,0,yes,1024
undefined,undefined,undefined,undefined,black,no,legacy,0,uniform,undefined,undefined,undefined,102,102,205,102,102,NA,102,102,0,0,0,102,102,0,102,0,NA,102,0,Fri 14 Jun 2019 11:50:12 AM PDT,500,1000,The main experiment item,yes,NA,ABX_v3.osexp,/home/ubuntu/Desktop/panara,yes,no,mono,no,18,no,white,no,yes,768,48,53,/home/ubuntu/Desktop/panara/subject-107.csv,Jazzy James,3.1.3,1.2.5.wav,2.2.5.wav,2.2.3.wav,0,0,0,0,NA,747,1386,747,NA,11215915,space,2,1024,2,48000,-16,experiment,2.2.3.wav,1.2.5.wav,2.2.5.wav,107,odd,11801506,11804002,11803502,11802778,11789576,NA,11800506,11804726,734,NA,NA,11800503,11805474,11538357,11800503,11216651,NA,11800506,736,New experiment,NA,0,0,0,yes,1024
undefined,undefined,undefined,undefined,black,no,legacy,0,uniform,undefined,undefined,undefined,103,103,207,103,103,NA,103,103,0,0,0,103,103,0,103,0,NA,103,0,Fri 14 Jun 2019 11:50:12 AM PDT,500,1000,The main experiment item,yes,NA,ABX_v3.osexp,/home/ubuntu/Desktop/panara,no,no,mono,no,18,no,white,no,yes,768,49,53,/home/ubuntu/Desktop/panara/subject-107.csv,Jazzy James,3.1.3,4.1.1.wav,2.1.1.wav,2.1.3.wav,0,0,0,0,NA,536,1386,536,NA,11215915,space,2,1024,2,48000,-16,experiment,4.1.1.wav,2.1.3.wav,2.1.1.wav,107,odd,11806635,11809135,11808635,11807883,11789576,NA,11805635,11809889,734,NA,NA,11805632,11810426,11538357,11805632,11216651,NA,11805635,736,New experiment,NA,0,0,0,yes,1024
undefined,undefined,undefined,undefined,black,no,legacy,0,uniform,undefined,undefined,undefined,104,104,209,104,104,NA,104,104,0,0,0,104,104,0,104,0,NA,104,0,Fri 14 Jun 2019 11:50:12 AM PDT,500,1000,The main experiment item,yes,NA,ABX_v3.osexp,/home/ubuntu/Desktop/panara,yes,no,mono,no,18,no,white,no,yes,768,50,53,/home/ubuntu/Desktop/panara/subject-107.csv,Jazzy James,3.1.3,4.1.4.wav,4.1.2.wav,3.1.2.wav,0,1,0,1,NA,1552,1386,1552,NA,11215915,space,2,1024,2,48000,-16,experiment,3.1.2.wav,4.1.4.wav,4.1.2.wav,107,odd,11811627,11814113,11813613,11812861,11789576,NA,11810627,11814897,734,NA,NA,11810624,11816450,11538357,11810624,11216651,NA,11810627,736,New experiment,NA,0,0,0,yes,1024
undefined,undefined,undefined,undefined,black,no,legacy,0,uniform,undefined,undefined,undefined,105,105,211,105,105,NA,105,105,0,0,0,105,105,0,105,0,NA,105,0,Fri 14 Jun 2019 11:50:12 AM PDT,500,1000,The main experiment item,yes,NA,ABX_v3.osexp,/home/ubuntu/Desktop/panara,yes,no,mono,no,18,no,white,no,yes,768,51,53,/home/ubuntu/Desktop/panara/subject-107.csv,Jazzy James,3.1.3,3.2.4.wav,3.1.4.wav,3.1.2.wav,0,1,0,1,NA,906,1386,906,NA,11215915,space,2,1024,2,48000,-16,experiment,3.1.2.wav,3.2.4.wav,3.1.4.wav,107,odd,11817659,11820175,11819675,11818913,11789576,NA,11816659,11820974,734,NA,NA,11816656,11821881,11538357,11816656,11216651,NA,11816659,736,New experiment,NA,0,0,0,yes,1024
undefined,undefined,undefined,undefined,black,no,legacy,0,uniform,undefined,undefined,undefined,106,106,213,106,106,NA,106,106,0,0,0,106,106,0,106,0,NA,106,0,Fri 14 Jun 2019 11:50:12 AM PDT,500,1000,The main experiment item,yes,NA,ABX_v3.osexp,/home/ubuntu/Desktop/panara,no,no,mono,no,18,no,white,no,yes,768,52,53,/home/ubuntu/Desktop/panara/subject-107.csv,Jazzy James,3.1.3,3.1.3.wav,3.1.5.wav,1.1.5.wav,0,1,0,1,NA,672,1386,672,NA,11215915,space,2,1024,2,48000,-16,experiment,3.1.3.wav,1.1.5.wav,3.1.5.wav,107,odd,11823101,11825634,11825134,11824354,11789576,NA,11822101,11826408,734,NA,NA,11822098,11827081,11538357,11822097,11216651,NA,11822101,736,New experiment,NA,0,0,0,yes,1024
undefined,undefined,undefined,undefined,black,no,legacy,0,uniform,undefined,undefined,undefined,107,107,215,107,107,NA,107,107,0,0,0,107,107,0,107,0,NA,107,0,Fri 14 Jun 2019 11:50:12 AM PDT,500,1000,The main experiment item,yes,NA,ABX_v3.osexp,/home/ubuntu/Desktop/panara,no,no,mono,no,18,no,white,no,yes,768,53,53,/home/ubuntu/Desktop/panara/subject-107.csv,Jazzy James,3.1.3,1.2.1.wav,3.2.1.wav,3.2.3.wav,0,0,0,0,NA,727,1386,727,NA,11215915,space,2,1024,2,48000,-16,experiment,1.2.1.wav,3.2.3.wav,3.2.1.wav,107,odd,11828252,11830765,11830265,11829520,11789576,NA,11827252,11831513,734,NA,NA,11827249,11832241,11538357,11827249,11216651,NA,11827252,736,New experiment,NA,0,0,0,yes,1024
undefined,undefined,undefined,undefined,black,no,legacy,0,uniform,undefined,undefined,undefined,108,108,217,108,108,NA,108,108,0,0,0,108,108,0,108,0,NA,108,0,Fri 14 Jun 2019 11:50:12 AM PDT,500,1000,The main experiment item,yes,NA,ABX_v3.osexp,/home/ubuntu/Desktop/panara,yes,no,mono,no,18,no,white,no,yes,768,54,53,/home/ubuntu/Desktop/panara/subject-107.csv,Jazzy James,3.1.3,4.2.4.wav,3.2.4.wav,3.2.2.wav,0,1,0,1,NA,860,1386,860,NA,11215915,space,2,1024,2,48000,-16,experiment,3.2.2.wav,4.2.4.wav,3.2.4.wav,107,odd,11833406,11835884,11835384,11834634,11789576,NA,11832406,11836668,734,NA,NA,11832404,11837528,11538357,11832404,11216651,NA,11832406,736,New experiment,NA,0,0,0,yes,1024
undefined,undefined,undefined,undefined,black,no,legacy,0,uniform,undefined,undefined,undefined,109,109,219,109,109,NA,109,109,0,0,0,109,109,0,109,0,NA,109,0,Fri 14 Jun 2019 11:50:12 AM PDT,500,1000,The main experiment item,yes,NA,ABX_v3.osexp,/home/ubuntu/Desktop/panara,no,no,mono,no,18,no,white,no,yes,768,55,53,/home/ubuntu/Desktop/panara/subject-107.csv,Jazzy James,3.1.3,4.1.3.wav,4.1.5.wav,4.2.5.wav,0,1,0,1,NA,701,1386,701,NA,11215915,space,2,1024,2,48000,-16,experiment,4.1.3.wav,4.2.5.wav,4.1.5.wav,107,odd,11838734,11841206,11840706,11839952,11789576,NA,11837734,11841930,734,NA,NA,11837731,11842632,11538357,11837731,11216651,NA,11837734,736,New experiment,NA,0,0,0,yes,1024
undefined,undefined,undefined,undefined,black,no,legacy,0,uniform,undefined,undefined,undefined,110,110,221,110,110,NA,110,110,0,0,0,110,110,0,110,0,NA,110,0,Fri 14 Jun 2019 11:50:12 AM PDT,500,1000,The main experiment item,yes,NA,ABX_v3.osexp,/home/ubuntu/Desktop/panara,no,no,mono,no,18,no,white,no,yes,768,56,53,/home/ubuntu/Desktop/panara/subject-107.csv,Jazzy James,3.1.3,3.2.1.wav,3.1.1.wav,3.1.3.wav,0,1,0,1,NA,848,1386,848,NA,11215915,space,2,1024,2,48000,-16,experiment,3.2.1.wav,3.1.3.wav,3.1.1.wav,107,odd,11843817,11846325,11845825,11845072,11789576,NA,11842816,11847079,734,NA,NA,11842813,11847928,11538357,11842813,11216651,NA,11842817,736,New experiment,NA,0,0,0,yes,1024
undefined,undefined,undefined,undefined,black,no,legacy,0,uniform,undefined,undefined,undefined,111,111,223,111,111,NA,111,111,0,0,0,111,111,0,111,0,NA,111,0,Fri 14 Jun 2019 11:50:12 AM PDT,500,1000,The main experiment item,yes,NA,ABX_v3.osexp,/home/ubuntu/Desktop/panara,yes,no,mono,no,18,no,white,no,yes,768,57,53,/home/ubuntu/Desktop/panara/subject-107.csv,Jazzy James,3.1.3,3.2.4.wav,3.2.2.wav,4.2.2.wav,0,1,0,1,NA,1180,1386,1180,NA,11215915,space,2,1024,2,48000,-16,experiment,4.2.2.wav,3.2.4.wav,3.2.2.wav,107,odd,11849082,11851621,11851121,11850341,11789576,NA,11848082,11852339,734,NA,NA,11848080,11853519,11538357,11848080,11216651,NA,11848082,736,New experiment,NA,0,0,0,yes,1024
undefined,undefined,undefined,undefined,black,no,legacy,0,uniform,undefined,undefined,undefined,112,112,225,112,112,NA,112,112,0,0,0,112,112,0,112,0,NA,112,0,Fri 14 Jun 2019 11:50:12 AM PDT,500,1000,The main experiment item,yes,NA,ABX_v3.osexp,/home/ubuntu/Desktop/panara,no,no,mono,no,18,no,white,no,yes,768,58,53,/home/ubuntu/Desktop/panara/subject-107.csv,Jazzy James,3.1.3,4.2.2.wav,4.2.4.wav,3.2.4.wav,0,0,0,0,NA,549,1386,549,NA,11215915,space,2,1024,2,48000,-16,experiment,4.2.2.wav,3.2.4.wav,4.2.4.wav,107,odd,11854694,11857183,11856683,11855930,11789576,NA,11853693,11857937,734,NA,NA,11853690,11858487,11538357,11853690,11216651,NA,11853694,736,New experiment,NA,0,0,0,yes,1024
undefined,undefined,undefined,undefined,black,no,legacy,0,uniform,undefined,undefined,undefined,113,113,227,113,113,NA,113,113,0,0,0,113,113,0,113,0,NA,113,0,Fri 14 Jun 2019 11:50:12 AM PDT,500,1000,The main experiment item,yes,NA,ABX_v3.osexp,/home/ubuntu/Desktop/panara,no,no,mono,no,18,no,white,no,yes,768,59,53,/home/ubuntu/Desktop/panara/subject-107.csv,Jazzy James,3.1.3,3.1.3.wav,4.1.3.wav,4.1.5.wav,0,0,0,0,NA,760,1386,760,NA,11215915,space,2,1024,2,48000,-16,experiment,3.1.3.wav,4.1.5.wav,4.1.3.wav,107,odd,11859674,11862154,11861654,11860936,11789576,NA,11858674,11862878,734,NA,NA,11858671,11863639,11538357,11858671,11216651,NA,11858674,736,New experiment,NA,0,0,0,yes,1024
undefined,undefined,undefined,undefined,black,no,legacy,0,uniform,undefined,undefined,undefined,114,114,229,114,114,NA,114,114,0,0,0,114,114,0,114,0,NA,114,0,Fri 14 Jun 2019 11:50:12 AM PDT,500,1000,The main experiment item,yes,NA,ABX_v3.osexp,/home/ubuntu/Desktop/panara,yes,no,mono,no,18,no,white,no,yes,768,60,53,/home/ubuntu/Desktop/panara/subject-107.csv,Jazzy James,3.1.3,3.1.4.wav,3.1.2.wav,3.2.2.wav,0,0,0,0,NA,651,1386,651,NA,11215915,space,2,1024,2,48000,-16,experiment,3.2.2.wav,3.1.4.wav,3.1.2.wav,107,odd,11864817,11867379,11866879,11866100,11789576,NA,11863817,11868147,734,NA,NA,11863814,11868799,11538357,11863814,11216651,NA,11863817,736,New experiment,NA,0,0,0,yes,1024
undefined,undefined,undefined,undefined,black,no,legacy,0,uniform,undefined,undefined,undefined,115,115,231,115,115,NA,115,115,0,0,0,115,115,0,115,0,NA,115,0,Fri 14 Jun 2019 11:50:12 AM PDT,500,1000,The main experiment item,yes,NA,ABX_v3.osexp,/home/ubuntu/Desktop/panara,yes,no,mono,no,18,no,white,no,yes,768,61,53,/home/ubuntu/Desktop/panara/subject-107.csv,Jazzy James,3.1.3,1.2.4.wav,1.2.2.wav,2.2.2.wav,0,0,0,0,NA,678,1386,678,NA,11215915,space,2,1024,2,48000,-16,experiment,2.2.2.wav,1.2.4.wav,1.2.2.wav,107,odd,11869968,11872511,11872011,11871228,11789576,NA,11868968,11873240,734,NA,NA,11868966,11873918,11538357,11868965,11216651,NA,11868968,736,New experiment,NA,0,0,0,yes,1024
undefined,undefined,undefined,undefined,black,no,legacy,0,uniform,undefined,undefined,undefined,116,116,233,116,116,NA,116,116,0,0,0,116,116,0,116,0,NA,116,0,Fri 14 Jun 2019 11:50:12 AM PDT,500,1000,The main experiment item,yes,NA,ABX_v3.osexp,/home/ubuntu/Desktop/panara,no,no,mono,no,18,no,white,no,yes,768,62,53,/home/ubuntu/Desktop/panara/subject-107.csv,Jazzy James,3.1.3,2.1.3.wav,2.2.3.wav,2.2.5.wav,0,1,0,1,NA,2370,1386,2370,NA,11215915,space,2,1024,2,48000,-16,experiment,2.1.3.wav,2.2.5.wav,2.2.3.wav,107,odd,11875097,11877598,11877098,11876352,11789576,NA,11874097,11878323,734,NA,NA,11874094,11880694,11538357,11874094,11216651,NA,11874097,736,New experiment,NA,0,0,0,yes,1024
undefined,undefined,undefined,undefined,black,no,legacy,0,uniform,undefined,undefined,undefined,117,117,235,117,117,NA,117,117,0,0,0,117,117,0,117,0,NA,117,0,Fri 14 Jun 2019 11:50:12 AM PDT,500,1000,The main experiment item,yes,NA,ABX_v3.osexp,/home/ubuntu/Desktop/panara,no,no,mono,no,18,no,white,no,yes,768,63,53,/home/ubuntu/Desktop/panara/subject-107.csv,Jazzy James,3.1.3,1.1.3.wav,1.1.5.wav,3.1.5.wav,0,1,0,1,NA,940,1386,940,NA,11215915,space,2,1024,2,48000,-16,experiment,1.1.3.wav,3.1.5.wav,1.1.5.wav,107,odd,11881877,11884402,11883902,11883144,11789576,NA,11880877,11885185,734,NA,NA,11880874,11886126,11538357,11880874,11216651,NA,11880877,736,New experiment,NA,0,0,0,yes,1024
undefined,undefined,undefined,undefined,black,no,legacy,0,uniform,undefined,undefined,undefined,118,118,237,118,118,NA,118,118,0,0,0,118,118,0,118,0,NA,118,0,Fri 14 Jun 2019 11:50:12 AM PDT,500,1000,The main experiment item,yes,NA,ABX_v3.osexp,/home/ubuntu/Desktop/panara,no,no,mono,no,18,no,white,no,yes,768,64,53,/home/ubuntu/Desktop/panara/subject-107.csv,Jazzy James,3.1.3,3.2.2.wav,4.2.2.wav,4.2.4.wav,0,0,0,0,NA,773,1386,773,NA,11215915,space,2,1024,2,48000,-16,experiment,3.2.2.wav,4.2.4.wav,4.2.2.wav,107,odd,11887311,11889806,11889306,11888583,11789576,NA,11886311,11890560,734,NA,NA,11886308,11891333,11538357,11886308,11216651,NA,11886311,736,New experiment,NA,0,0,0,yes,1024
undefined,undefined,undefined,undefined,black,no,legacy,0,uniform,undefined,undefined,undefined,119,119,239,119,119,NA,119,119,0,0,0,119,119,0,119,0,NA,119,0,Fri 14 Jun 2019 11:50:12 AM PDT,500,1000,The main experiment item,yes,NA,ABX_v3.osexp,/home/ubuntu/Desktop/panara,no,no,mono,no,18,no,white,no,yes,768,65,53,/home/ubuntu/Desktop/panara/subject-107.csv,Jazzy James,3.1.3,3.1.3.wav,3.1.5.wav,3.2.5.wav,0,0,0,0,NA,665,1386,665,NA,11215915,space,2,1024,2,48000,-16,experiment,3.1.3.wav,3.2.5.wav,3.1.5.wav,107,odd,11892521,11895060,11894560,11893781,11789576,NA,11891520,11895835,734,NA,NA,11891518,11896501,11538357,11891518,11216651,NA,11891521,736,New experiment,NA,0,0,0,yes,1024
undefined,undefined,undefined,undefined,black,no,legacy,0,uniform,undefined,undefined,undefined,120,120,241,120,120,NA,120,120,0,0,0,120,120,0,120,0,NA,120,0,Fri 14 Jun 2019 11:50:12 AM PDT,500,1000,The main experiment item,yes,NA,ABX_v3.osexp,/home/ubuntu/Desktop/panara,yes,no,mono,no,18,no,white,no,yes,768,66,53,/home/ubuntu/Desktop/panara/subject-107.csv,Jazzy James,3.1.3,2.2.4.wav,2.2.2.wav,2.1.2.wav,0,0,0,0,NA,731,1386,731,NA,11215915,space,2,1024,2,48000,-16,experiment,2.1.2.wav,2.2.4.wav,2.2.2.wav,107,odd,11897699,11900166,11899666,11898951,11789576,NA,11896699,11900921,734,NA,NA,11896695,11901653,11538357,11896695,11216651,NA,11896699,736,New experiment,NA,0,0,0,yes,1024
undefined,undefined,undefined,undefined,black,no,legacy,0,uniform,undefined,undefined,undefined,121,121,243,121,121,NA,121,121,0,0,0,121,121,0,121,0,NA,121,0,Fri 14 Jun 2019 11:50:12 AM PDT,500,1000,The main experiment item,yes,NA,ABX_v3.osexp,/home/ubuntu/Desktop/panara,yes,no,mono,no,18,no,white,no,yes,768,67,53,/home/ubuntu/Desktop/panara/subject-107.csv,Jazzy James,3.1.3,1.2.5.wav,1.2.3.wav,2.2.3.wav,0,1,0,1,NA,1029,1386,1029,NA,11215915,space,2,1024,2,48000,-16,experiment,2.2.3.wav,1.2.5.wav,1.2.3.wav,107,odd,11902822,11905385,11904885,11904114,11789576,NA,11901822,11906111,734,NA,NA,11901819,11907140,11538357,11901819,11216651,NA,11901822,736,New experiment,NA,0,0,0,yes,1024
undefined,undefined,undefined,undefined,black,no,legacy,0,uniform,undefined,undefined,undefined,122,122,245,122,122,NA,122,122,0,0,0,122,122,0,122,0,NA,122,0,Fri 14 Jun 2019 11:50:12 AM PDT,500,1000,The main experiment item,yes,NA,ABX_v3.osexp,/home/ubuntu/Desktop/panara,no,no,mono,no,18,no,white,no,yes,768,68,53,/home/ubuntu/Desktop/panara/subject-107.csv,Jazzy James,3.1.3,3.2.1.wav,1.2.1.wav,1.2.3.wav,0,0,0,0,NA,703,1386,703,NA,11215915,space,2,1024,2,48000,-16,experiment,3.2.1.wav,1.2.3.wav,1.2.1.wav,107,odd,11908321,11910856,11910355,11909558,11789576,NA,11907321,11911636,734,NA,NA,11907319,11912340,11538357,11907319,11216651,NA,11907321,736,New experiment,NA,0,0,0,yes,1024
undefined,undefined,undefined,undefined,black,no,legacy,0,uniform,undefined,undefined,undefined,123,123,247,123,123,NA,123,123,0,0,0,123,123,0,123,0,NA,123,0,Fri 14 Jun 2019 11:50:12 AM PDT,500,1000,The main experiment item,yes,NA,ABX_v3.osexp,/home/ubuntu/Desktop/panara,yes,no,mono,no,18,no,white,no,yes,768,69,53,/home/ubuntu/Desktop/panara/subject-107.csv,Jazzy James,3.1.3,2.1.5.wav,2.2.5.wav,2.2.3.wav,0,0,0,0,NA,650,1386,650,NA,11215915,space,2,1024,2,48000,-16,experiment,2.2.3.wav,2.1.5.wav,2.2.5.wav,107,odd,11913531,11916018,11915518,11914780,11789576,NA,11912530,11916737,734,NA,NA,11912528,11917388,11538357,11912528,11216651,NA,11912531,736,New experiment,NA,0,0,0,yes,1024
undefined,undefined,undefined,undefined,black,no,legacy,0,uniform,undefined,undefined,undefined,124,124,249,124,124,NA,124,124,0,0,0,124,124,0,124,0,NA,124,0,Fri 14 Jun 2019 11:50:12 AM PDT,500,1000,The main experiment item,yes,NA,ABX_v3.osexp,/home/ubuntu/Desktop/panara,yes,no,mono,no,18,no,white,no,yes,768,70,53,/home/ubuntu/Desktop/panara/subject-107.csv,Jazzy James,3.1.3,1.1.5.wav,1.1.3.wav,3.1.3.wav,0,1,0,1,NA,1099,1386,1099,NA,11215915,space,2,1024,2,48000,-16,experiment,3.1.3.wav,1.1.5.wav,1.1.3.wav,107,odd,11918558,11921158,11920658,11919849,11789576,NA,11917557,11921911,734,NA,NA,11917555,11923011,11538357,11917554,11216651,NA,11917557,736,New experiment,NA,0,0,0,yes,1024
undefined,undefined,undefined,undefined,black,no,legacy,0,uniform,undefined,undefined,undefined,125,125,251,125,125,NA,125,125,0,0,0,125,125,0,125,0,NA,125,0,Fri 14 Jun 2019 11:50:12 AM PDT,500,1000,The main experiment item,yes,NA,ABX_v3.osexp,/home/ubuntu/Desktop/panara,no,no,mono,no,18,no,white,no,yes,768,71,53,/home/ubuntu/Desktop/panara/subject-107.csv,Jazzy James,3.1.3,4.1.2.wav,4.1.4.wav,4.2.4.wav,0,0,0,0,NA,1897,1386,1897,NA,11215915,space,2,1024,2,48000,-16,experiment,4.1.2.wav,4.2.4.wav,4.1.4.wav,107,odd,11924179,11926646,11926146,11925425,11789576,NA,11923179,11927401,734,NA,NA,11923176,11929299,11538357,11923176,11216651,NA,11923179,736,New experiment,NA,0,0,0,yes,1024
undefined,undefined,undefined,undefined,black,no,legacy,0,uniform,undefined,undefined,undefined,126,126,253,126,126,NA,126,126,0,0,0,126,126,0,126,0,NA,126,0,Fri 14 Jun 2019 11:50:12 AM PDT,500,1000,The main experiment item,yes,NA,ABX_v3.osexp,/home/ubuntu/Desktop/panara,no,no,mono,no,18,no,white,no,yes,768,72,53,/home/ubuntu/Desktop/panara/subject-107.csv,Jazzy James,3.1.3,1.2.3.wav,2.2.3.wav,2.2.5.wav,0,1,0,1,NA,954,1386,954,NA,11215915,space,2,1024,2,48000,-16,experiment,1.2.3.wav,2.2.5.wav,2.2.3.wav,107,odd,11930481,11932976,11932476,11931751,11789576,NA,11929480,11933712,734,NA,NA,11929478,11934667,11538357,11929478,11216651,NA,11929481,736,New experiment,NA,0,0,0,yes,1024
undefined,undefined,undefined,undefined,black,no,legacy,0,uniform,undefined,undefined,undefined,127,127,255,127,127,NA,127,127,0,0,0,127,127,0,127,0,NA,127,0,Fri 14 Jun 2019 11:50:12 AM PDT,500,1000,The main experiment item,yes,NA,ABX_v3.osexp,/home/ubuntu/Desktop/panara,yes,no,mono,no,18,no,white,no,yes,768,73,53,/home/ubuntu/Desktop/panara/subject-107.csv,Jazzy James,3.1.3,2.2.5.wav,2.1.5.wav,2.1.3.wav,0,0,0,0,NA,1790,1386,1790,NA,11215915,space,2,1024,2,48000,-16,experiment,2.1.3.wav,2.2.5.wav,2.1.5.wav,107,odd,11935858,11938330,11937830,11937078,11789576,NA,11934858,11939076,734,NA,NA,11934856,11940867,11538357,11934856,11216651,NA,11934858,736,New experiment,NA,0,0,0,yes,1024
undefined,undefined,undefined,undefined,black,no,legacy,0,uniform,undefined,undefined,undefined,128,128,257,128,128,NA,128,128,0,0,0,128,128,0,128,0,NA,128,0,Fri 14 Jun 2019 11:50:12 AM PDT,500,1000,The main experiment item,yes,NA,ABX_v3.osexp,/home/ubuntu/Desktop/panara,no,no,mono,no,18,no,white,no,yes,768,74,53,/home/ubuntu/Desktop/panara/subject-107.csv,Jazzy James,3.1.3,4.2.1.wav,4.2.3.wav,4.1.3.wav,0,0,0,0,NA,722,1386,722,NA,11215915,space,2,1024,2,48000,-16,experiment,4.2.1.wav,4.1.3.wav,4.2.3.wav,107,odd,11942031,11944521,11944021,11943256,11789576,NA,11941031,11945278,734,NA,NA,11941028,11946001,11538357,11941028,11216651,NA,11941031,736,New experiment,NA,0,0,0,yes,1024
undefined,undefined,undefined,undefined,black,no,legacy,0,uniform,undefined,undefined,undefined,129,129,259,129,129,NA,129,129,0,0,0,129,129,0,129,0,NA,129,0,Fri 14 Jun 2019 11:50:12 AM PDT,500,1000,The main experiment item,yes,NA,ABX_v3.osexp,/home/ubuntu/Desktop/panara,no,no,mono,no,18,no,white,no,yes,768,75,53,/home/ubuntu/Desktop/panara/subject-107.csv,Jazzy James,3.1.3,1.2.2.wav,1.1.2.wav,1.1.4.wav,0,1,0,1,NA,1064,1386,1064,NA,11215915,space,2,1024,2,48000,-16,experiment,1.2.2.wav,1.1.4.wav,1.1.2.wav,107,odd,11947193,11949778,11949278,11948470,11789576,NA,11946193,11950561,734,NA,NA,11946190,11951626,11538357,11946190,11216651,NA,11946193,736,New experiment,NA,0,0,0,yes,1024
undefined,undefined,undefined,undefined,black,no,legacy,0,uniform,undefined,undefined,undefined,130,130,261,130,130,NA,130,130,0,0,0,130,130,0,130,0,NA,130,0,Fri 14 Jun 2019 11:50:12 AM PDT,500,1000,The main experiment item,yes,NA,ABX_v3.osexp,/home/ubuntu/Desktop/panara,yes,no,mono,no,18,no,white,no,yes,768,76,53,/home/ubuntu/Desktop/panara/subject-107.csv,Jazzy James,3.1.3,3.1.5.wav,3.1.3.wav,1.1.3.wav,0,1,0,1,NA,1008,1386,1008,NA,11215915,space,2,1024,2,48000,-16,experiment,1.1.3.wav,3.1.5.wav,3.1.3.wav,107,odd,11952804,11955324,11954824,11954074,11789576,NA,11951804,11956137,734,NA,NA,11951801,11957146,11538357,11951801,11216651,NA,11951804,736,New experiment,NA,0,0,0,yes,1024
undefined,undefined,undefined,undefined,black,no,legacy,0,uniform,undefined,undefined,undefined,131,131,263,131,131,NA,131,131,0,0,0,131,131,0,131,0,NA,131,0,Fri 14 Jun 2019 11:50:12 AM PDT,500,1000,The main experiment item,yes,NA,ABX_v3.osexp,/home/ubuntu/Desktop/panara,yes,no,mono,no,18,no,white,no,yes,768,77,53,/home/ubuntu/Desktop/panara/subject-107.csv,Jazzy James,3.1.3,3.1.5.wav,3.1.3.wav,4.1.3.wav,0,0,0,0,NA,1096,1386,1096,NA,11215915,space,2,1024,2,48000,-16,experiment,4.1.3.wav,3.1.5.wav,3.1.3.wav,107,odd,11958322,11960834,11960334,11959590,11789576,NA,11957322,11961560,734,NA,NA,11957319,11962657,11538357,11957319,11216651,NA,11957322,736,New experiment,NA,0,0,0,yes,1024
undefined,undefined,undefined,undefined,black,no,legacy,0,uniform,undefined,undefined,undefined,132,132,265,132,132,NA,132,132,0,0,0,132,132,0,132,0,NA,132,0,Fri 14 Jun 2019 11:50:12 AM PDT,500,1000,The main experiment item,yes,NA,ABX_v3.osexp,/home/ubuntu/Desktop/panara,no,no,mono,no,18,no,white,no,yes,768,78,53,/home/ubuntu/Desktop/panara/subject-107.csv,Jazzy James,3.1.3,2.2.3.wav,4.2.3.wav,4.2.5.wav,0,0,0,0,NA,1393,1386,1393,NA,11215915,space,2,1024,2,48000,-16,experiment,2.2.3.wav,4.2.5.wav,4.2.3.wav,107,odd,11963838,11966340,11965840,11965102,11789576,NA,11962838,11967063,734,NA,NA,11962835,11968457,11538357,11962835,11216651,NA,11962838,736,New experiment,NA,0,0,0,yes,1024
undefined,undefined,undefined,undefined,black,no,legacy,0,uniform,undefined,undefined,undefined,133,133,267,133,133,NA,133,133,0,0,0,133,133,0,133,0,NA,133,0,Fri 14 Jun 2019 11:50:12 AM PDT,500,1000,The main experiment item,yes,NA,ABX_v3.osexp,/home/ubuntu/Desktop/panara,no,no,mono,no,18,no,white,no,yes,768,79,53,/home/ubuntu/Desktop/panara/subject-107.csv,Jazzy James,3.1.3,4.1.2.wav,2.1.2.wav,2.1.4.wav,0,0,0,0,NA,1186,1386,1186,NA,11215915,space,2,1024,2,48000,-16,experiment,4.1.2.wav,2.1.4.wav,2.1.2.wav,107,odd,11969605,11972091,11971591,11970840,11789576,NA,11968605,11972845,734,NA,NA,11968602,11974032,11538357,11968602,11216651,NA,11968605,736,New experiment,NA,0,0,0,yes,1024
undefined,undefined,undefined,undefined,black,no,legacy,0,uniform,undefined,undefined,undefined,134,134,269,134,134,NA,134,134,0,0,0,134,134,0,134,0,NA,134,0,Fri 14 Jun 2019 11:50:12 AM PDT,500,1000,The main experiment item,yes,NA,ABX_v3.osexp,/home/ubuntu/Desktop/panara,yes,no,mono,no,18,no,white,no,yes,768,80,53,/home/ubuntu/Desktop/panara/subject-107.csv,Jazzy James,3.1.3,3.2.5.wav,4.2.5.wav,4.2.3.wav,0,1,0,1,NA,1103,1386,1103,NA,11215915,space,2,1024,2,48000,-16,experiment,4.2.3.wav,3.2.5.wav,4.2.5.wav,107,odd,11975187,11977693,11977193,11976472,11789576,NA,11974187,11978441,734,NA,NA,11974184,11979546,11538357,11974184,11216651,NA,11974187,736,New experiment,NA,0,0,0,yes,1024
undefined,undefined,undefined,undefined,black,no,legacy,0,uniform,undefined,undefined,undefined,135,135,271,135,135,NA,135,135,0,0,0,135,135,0,135,0,NA,135,0,Fri 14 Jun 2019 11:50:12 AM PDT,500,1000,The main experiment item,yes,NA,ABX_v3.osexp,/home/ubuntu/Desktop/panara,no,no,mono,no,18,no,white,no,yes,768,81,53,/home/ubuntu/Desktop/panara/subject-107.csv,Jazzy James,3.1.3,3.2.1.wav,3.2.3.wav,1.2.3.wav,0,1,0,1,NA,1250,1386,1250,NA,11215915,space,2,1024,2,48000,-16,experiment,3.2.1.wav,1.2.3.wav,3.2.3.wav,107,odd,11980707,11983205,11982705,11981955,11789576,NA,11979707,11983981,734,NA,NA,11979705,11985232,11538357,11979705,11216651,NA,11979707,736,New experiment,NA,0,0,0,yes,1024
undefined,undefined,undefined,undefined,black,no,legacy,0,uniform,undefined,undefined,undefined,136,136,273,136,136,NA,136,136,0,0,0,136,136,0,136,0,NA,136,0,Fri 14 Jun 2019 11:50:12 AM PDT,500,1000,The main experiment item,yes,NA,ABX_v3.osexp,/home/ubuntu/Desktop/panara,no,no,mono,no,18,no,white,no,yes,768,82,53,/home/ubuntu/Desktop/panara/subject-107.csv,Jazzy James,3.1.3,2.2.1.wav,4.2.1.wav,4.2.3.wav,0,0,0,0,NA,817,1386,817,NA,11215915,space,2,1024,2,48000,-16,experiment,2.2.1.wav,4.2.3.wav,4.2.1.wav,107,odd,11986385,11988850,11988350,11987629,11789576,NA,11985384,11989598,734,NA,NA,11985381,11990416,11538357,11985381,11216651,NA,11985385,736,New experiment,NA,0,0,0,yes,1024
undefined,undefined,undefined,undefined,black,no,legacy,0,uniform,undefined,undefined,undefined,137,137,275,137,137,NA,137,137,0,0,0,137,137,0,137,0,NA,137,0,Fri 14 Jun 2019 11:50:12 AM PDT,500,1000,The main experiment item,yes,NA,ABX_v3.osexp,/home/ubuntu/Desktop/panara,no,no,mono,no,18,no,white,no,yes,768,83,53,/home/ubuntu/Desktop/panara/subject-107.csv,Jazzy James,3.1.3,3.2.1.wav,3.2.3.wav,3.1.3.wav,0,0,0,0,NA,882,1386,882,NA,11215915,space,2,1024,2,48000,-16,experiment,3.2.1.wav,3.1.3.wav,3.2.3.wav,107,odd,11991585,11994098,11993598,11992848,11789576,NA,11990585,11994853,734,NA,NA,11990582,11995735,11538357,11990582,11216651,NA,11990585,736,New experiment,NA,0,0,0,yes,1024
undefined,undefined,undefined,undefined,black,no,legacy,0,uniform,undefined,undefined,undefined,138,138,277,138,138,NA,138,138,0,0,0,138,138,0,138,0,NA,138,0,Fri 14 Jun 2019 11:50:12 AM PDT,500,1000,The main experiment item,yes,NA,ABX_v3.osexp,/home/ubuntu/Desktop/panara,no,no,mono,no,18,no,white,no,yes,768,84,53,/home/ubuntu/Desktop/panara/subject-107.csv,Jazzy James,3.1.3,1.1.1.wav,1.1.3.wav,2.1.3.wav,0,0,0,0,NA,688,1386,688,NA,11215915,space,2,1024,2,48000,-16,experiment,1.1.1.wav,2.1.3.wav,1.1.3.wav,107,odd,11996886,11999474,11998974,11998181,11789576,NA,11995886,12000230,734,NA,NA,11995884,12000919,11538357,11995884,11216651,NA,11995886,736,New experiment,NA,0,0,0,yes,1024
undefined,undefined,undefined,undefined,black,no,legacy,0,uniform,undefined,undefined,undefined,139,139,279,139,139,NA,139,139,0,0,0,139,139,0,139,0,NA,139,0,Fri 14 Jun 2019 11:50:12 AM PDT,500,1000,The main experiment item,yes,NA,ABX_v3.osexp,/home/ubuntu/Desktop/panara,yes,no,mono,no,18,no,white,no,yes,768,85,53,/home/ubuntu/Desktop/panara/subject-107.csv,Jazzy James,3.1.3,3.1.3.wav,3.1.1.wav,4.1.1.wav,0,0,0,0,NA,1246,1386,1246,NA,11215915,space,2,1024,2,48000,-16,experiment,4.1.1.wav,3.1.3.wav,3.1.1.wav,107,odd,12002080,12004594,12004094,12003342,11789576,NA,12001080,12005312,734,NA,NA,12001078,12006559,11538357,12001078,11216651,NA,12001080,736,New experiment,NA,0,0,0,yes,1024
undefined,undefined,undefined,undefined,black,no,legacy,0,uniform,undefined,undefined,undefined,140,140,281,140,140,NA,140,140,0,0,0,140,140,0,140,0,NA,140,0,Fri 14 Jun 2019 11:50:12 AM PDT,500,1000,The main experiment item,yes,NA,ABX_v3.osexp,/home/ubuntu/Desktop/panara,no,no,mono,no,18,no,white,no,yes,768,86,53,/home/ubuntu/Desktop/panara/subject-107.csv,Jazzy James,3.1.3,4.1.3.wav,2.1.3.wav,2.1.5.wav,0,0,0,0,NA,1412,1386,1412,NA,11215915,space,2,1024,2,48000,-16,experiment,4.1.3.wav,2.1.5.wav,2.1.3.wav,107,odd,12007734,12010233,12009733,12008988,11789576,NA,12006734,12010986,734,NA,NA,12006731,12012399,11538357,12006731,11216651,NA,12006734,736,New experiment,NA,0,0,0,yes,1024
undefined,undefined,undefined,undefined,black,no,legacy,0,uniform,undefined,undefined,undefined,141,141,283,141,141,NA,141,141,0,0,0,141,141,0,141,0,NA,141,0,Fri 14 Jun 2019 11:50:12 AM PDT,500,1000,The main experiment item,yes,NA,ABX_v3.osexp,/home/ubuntu/Desktop/panara,yes,no,mono,no,18,no,white,no,yes,768,87,53,/home/ubuntu/Desktop/panara/subject-107.csv,Jazzy James,3.1.3,2.1.3.wav,4.1.3.wav,4.1.1.wav,0,0,0,0,NA,838,1386,838,NA,11215915,space,2,1024,2,48000,-16,experiment,4.1.1.wav,2.1.3.wav,4.1.3.wav,107,odd,12013560,12016065,12015565,12014806,11789576,NA,12012559,12016783,734,NA,NA,12012557,12017622,11538357,12012557,11216651,NA,12012560,736,New experiment,NA,0,0,0,yes,1024
undefined,undefined,undefined,undefined,black,no,legacy,0,uniform,undefined,undefined,undefined,142,142,285,142,142,NA,142,142,0,0,0,142,142,0,142,0,NA,142,0,Fri 14 Jun 2019 11:50:12 AM PDT,500,1000,The main experiment item,yes,NA,ABX_v3.osexp,/home/ubuntu/Desktop/panara,yes,no,mono,no,18,no,white,no,yes,768,88,53,/home/ubuntu/Desktop/panara/subject-107.csv,Jazzy James,3.1.3,4.1.3.wav,4.1.1.wav,2.1.1.wav,0,1,0,1,NA,876,1386,876,NA,11215915,space,2,1024,2,48000,-16,experiment,2.1.1.wav,4.1.3.wav,4.1.1.wav,107,odd,12018801,12021254,12020754,12020033,11789576,NA,12017801,12022009,734,NA,NA,12017798,12022886,11538357,12017798,11216651,NA,12017801,736,New experiment,NA,0,0,0,yes,1024
undefined,undefined,undefined,undefined,black,no,legacy,0,uniform,undefined,undefined,undefined,143,143,287,143,143,NA,143,143,0,0,0,143,143,0,143,0,NA,143,0,Fri 14 Jun 2019 11:50:12 AM PDT,500,1000,The main experiment item,yes,NA,ABX_v3.osexp,/home/ubuntu/Desktop/panara,yes,no,mono,no,18,no,white,no,yes,768,89,53,/home/ubuntu/Desktop/panara/subject-107.csv,Jazzy James,3.1.3,3.2.5.wav,3.2.3.wav,3.1.3.wav,0,1,0,1,NA,907,1386,907,NA,11215915,space,2,1024,2,48000,-16,experiment,3.1.3.wav,3.2.5.wav,3.2.3.wav,107,odd,12024039,12026565,12026065,12025315,11789576,NA,12023039,12027306,734,NA,NA,12023036,12028214,11538357,12023036,11216651,NA,12023039,736,New experiment,NA,0,0,0,yes,1024
undefined,undefined,undefined,undefined,black,no,legacy,0,uniform,undefined,undefined,undefined,144,144,289,144,144,NA,144,144,0,0,0,144,144,0,144,0,NA,144,0,Fri 14 Jun 2019 11:50:12 AM PDT,500,1000,The main experiment item,yes,NA,ABX_v3.osexp,/home/ubuntu/Desktop/panara,yes,no,mono,no,18,no,white,no,yes,768,90,53,/home/ubuntu/Desktop/panara/subject-107.csv,Jazzy James,3.1.3,4.1.5.wav,4.1.3.wav,4.2.3.wav,0,1,0,1,NA,966,1386,966,NA,11215915,space,2,1024,2,48000,-16,experiment,4.2.3.wav,4.1.5.wav,4.1.3.wav,107,odd,12029384,12031829,12031329,12030614,11789576,NA,12028384,12032583,734,NA,NA,12028382,12033549,11538357,12028382,11216651,NA,12028384,736,New experiment,NA,0,0,0,yes,1024
