"acc","accuracy","average_response_time","avg_rt","background","bidi","canvas_backend","compensation","coordinates","correct","correct_display_selecting","correct_welcome","count_A","count_B","count_ISI","count_X","count_break","count_determine_break","count_display_listening","count_display_selecting","count_experiment","count_finished","count_getting_started","count_new_inline_script","count_new_logger","count_new_loop","count_new_sequence","count_plain_block","count_setup_breaks","count_wait_nextitem","count_welcome","datetime","delay_ISI","delay_wait_nextitem","description","disable_garbage_collection","empty_column","experiment_file","experiment_path","flip_order","font_bold","font_family","font_italic","font_size","font_underline","foreground","form_clicks","fullscreen","height","live_row","live_row_plain_block","logfile","opensesame_codename","opensesame_version","play1","play2","play3","repeat_cycle","response","response_break","response_display_selecting","response_finished","response_time","response_time_break","response_time_display_selecting","response_time_finished","response_time_welcome","response_welcome","round_decimals","sound_buf_size","sound_channels","sound_freq","sound_sample_size","start","stimA","stimB","stimX","subject_nr","subject_parity","time_A","time_B","time_ISI","time_X","time_break","time_determine_break","time_display_listening","time_display_selecting","time_experiment","time_finished","time_getting_started","time_new_inline_script","time_new_logger","time_new_loop","time_new_sequence","time_plain_block","time_setup_breaks","time_wait_nextitem","time_welcome","title","to_break","total_correct","total_response_time","total_responses","uniform_coordinates","width"
"undefined","undefined","undefined","undefined","black","no","legacy","0","uniform","undefined","undefined","undefined","0","0","1","0","0","NA","0","0","0","0","0","0","0","0","0","0","NA","0","0","Thu 30 May 2019 11:39:31 AM PDT","500","1000","The main experiment item","yes","NA","ABX_v3.osexp","/home/ubuntu/Desktop/panara","no","no","mono","no","18","no","white","no","yes","768","0","0","/home/ubuntu/Desktop/panara/subject-703.csv","Jazzy James","3.1.3","5.2.2.wav","5.2.4.wav","5.2.4.wav","0","1","NA","1","NA","1533","NA","1533","NA","1889940","1","2","1024","2","48000","-16","experiment","5.2.2.wav","5.2.4.wav","5.2.4.wav","703","odd","1891687","1894149","1893649","1892913","NA","NA","1890687","1894914","697","NA","NA","1890685","1896447","NA","1890685","1890639","NA","1890687","699","New experiment","NA","0","0","0","yes","1024"
"undefined","undefined","undefined","undefined","black","no","legacy","0","uniform","undefined","undefined","undefined","1","1","3","1","1","NA","1","1","0","0","0","1","1","0","1","0","NA","1","0","Thu 30 May 2019 11:39:31 AM PDT","500","1000","The main experiment item","yes","NA","ABX_v3.osexp","/home/ubuntu/Desktop/panara","yes","no","mono","no","18","no","white","no","yes","768","1","1","/home/ubuntu/Desktop/panara/subject-703.csv","Jazzy James","3.1.3","4.1.5.wav","4.1.3.wav","4.1.3.wav","0","0","NA","0","NA","2379","NA","2379","NA","1889940","1","2","1024","2","48000","-16","experiment","4.1.3.wav","4.1.5.wav","4.1.3.wav","703","odd","1897718","1900140","1899640","1898933","NA","NA","1896718","1900859","697","NA","NA","1896715","1903239","NA","1896715","1890639","NA","1896718","699","New experiment","NA","0","0","0","yes","1024"
"undefined","undefined","undefined","undefined","black","no","legacy","0","uniform","undefined","undefined","undefined","2","2","5","2","2","NA","2","2","0","0","0","2","2","0","2","0","NA","2","0","Thu 30 May 2019 11:39:31 AM PDT","500","1000","The main experiment item","yes","NA","ABX_v3.osexp","/home/ubuntu/Desktop/panara","no","no","mono","no","18","no","white","no","yes","768","2","2","/home/ubuntu/Desktop/panara/subject-703.csv","Jazzy James","3.1.3","1.1.1.wav","1.1.3.wav","1.1.3.wav","0","0","NA","0","NA","1863","NA","1863","NA","1889940","1","2","1024","2","48000","-16","experiment","1.1.1.wav","1.1.3.wav","1.1.3.wav","703","odd","1904401","1906997","1906497","1905712","NA","NA","1903401","1907775","697","NA","NA","1903399","1909638","NA","1903399","1890639","NA","1903401","699","New experiment","NA","0","0","0","yes","1024"
"undefined","undefined","undefined","undefined","black","no","legacy","0","uniform","undefined","undefined","undefined","3","3","7","3","3","NA","3","3","0","0","0","3","3","0","3","0","NA","3","0","Thu 30 May 2019 11:39:31 AM PDT","500","1000","The main experiment item","yes","NA","ABX_v3.osexp","/home/ubuntu/Desktop/panara","no","no","mono","no","18","no","white","no","yes","768","3","3","/home/ubuntu/Desktop/panara/subject-703.csv","Jazzy James","3.1.3","4.2.2.wav","4.2.2.wav","4.2.4.wav","0","1","NA","1","NA","2005","NA","2005","NA","1889940","1","2","1024","2","48000","-16","experiment","4.2.2.wav","4.2.4.wav","4.2.2.wav","703","odd","1910809","1913264","1912764","1912047","NA","NA","1909809","1913978","697","NA","NA","1909807","1915983","NA","1909806","1890639","NA","1909809","699","New experiment","NA","0","0","0","yes","1024"
"undefined","undefined","undefined","undefined","black","no","legacy","0","uniform","undefined","undefined","undefined","4","4","9","4","4","NA","4","4","0","0","0","4","4","0","4","0","NA","4","0","Thu 30 May 2019 11:39:31 AM PDT","500","1000","The main experiment item","yes","NA","ABX_v3.osexp","/home/ubuntu/Desktop/panara","no","no","mono","no","18","no","white","no","yes","768","4","4","/home/ubuntu/Desktop/panara/subject-703.csv","Jazzy James","3.1.3","3.2.1.wav","3.2.1.wav","3.2.3.wav","0","0","NA","0","NA","4199","NA","4199","NA","1889940","1","2","1024","2","48000","-16","experiment","3.2.1.wav","3.2.3.wav","3.2.1.wav","703","odd","1917137","1919628","1919128","1918380","NA","NA","1916136","1920382","697","NA","NA","1916133","1924581","NA","1916133","1890639","NA","1916137","699","New experiment","NA","0","0","0","yes","1024"
"undefined","undefined","undefined","undefined","black","no","legacy","0","uniform","undefined","undefined","undefined","5","5","11","5","5","NA","5","5","0","0","0","5","5","0","5","0","NA","5","0","Thu 30 May 2019 11:39:31 AM PDT","500","1000","The main experiment item","yes","NA","ABX_v3.osexp","/home/ubuntu/Desktop/panara","no","no","mono","no","18","no","white","no","yes","768","5","5","/home/ubuntu/Desktop/panara/subject-703.csv","Jazzy James","3.1.3","3.2.2.wav","3.2.2.wav","3.2.4.wav","0","0","NA","0","NA","5867","NA","5867","NA","1889940","1","2","1024","2","48000","-16","experiment","3.2.2.wav","3.2.4.wav","3.2.2.wav","703","odd","1925744","1928320","1927820","1927049","NA","NA","1924744","1929083","697","NA","NA","1924741","1934950","NA","1924741","1890639","NA","1924744","699","New experiment","NA","0","0","0","yes","1024"
"undefined","undefined","undefined","undefined","black","no","legacy","0","uniform","undefined","undefined","undefined","6","6","13","6","6","NA","6","6","0","0","0","6","6","0","6","0","NA","6","0","Thu 30 May 2019 11:39:31 AM PDT","500","1000","The main experiment item","yes","NA","ABX_v3.osexp","/home/ubuntu/Desktop/panara","no","no","mono","no","18","no","white","no","yes","768","6","6","/home/ubuntu/Desktop/panara/subject-703.csv","Jazzy James","3.1.3","2.1.1.wav","2.1.1.wav","2.1.3.wav","0","1","NA","1","NA","860","NA","860","NA","1889940","1","2","1024","2","48000","-16","experiment","2.1.1.wav","2.1.3.wav","2.1.1.wav","703","odd","1936112","1938615","1938115","1937365","NA","NA","1935111","1939368","697","NA","NA","1935109","1940229","NA","1935109","1890639","NA","1935112","699","New experiment","NA","0","0","0","yes","1024"
"undefined","undefined","undefined","undefined","black","no","legacy","0","uniform","undefined","undefined","undefined","7","7","15","7","7","NA","7","7","0","0","0","7","7","0","7","0","NA","7","0","Thu 30 May 2019 11:39:31 AM PDT","500","1000","The main experiment item","yes","NA","ABX_v3.osexp","/home/ubuntu/Desktop/panara","yes","no","mono","no","18","no","white","no","yes","768","7","7","/home/ubuntu/Desktop/panara/subject-703.csv","Jazzy James","3.1.3","4.1.3.wav","4.1.3.wav","4.1.1.wav","0","1","NA","1","NA","1418","NA","1418","NA","1889940","1","2","1024","2","48000","-16","experiment","4.1.1.wav","4.1.3.wav","4.1.3.wav","703","odd","1941368","1943832","1943332","1942621","NA","NA","1940368","1944547","697","NA","NA","1940366","1945965","NA","1940366","1890639","NA","1940368","699","New experiment","NA","0","0","0","yes","1024"
"undefined","undefined","undefined","undefined","black","no","legacy","0","uniform","undefined","undefined","undefined","8","8","17","8","8","NA","8","8","0","0","0","8","8","0","8","0","NA","8","0","Thu 30 May 2019 11:39:31 AM PDT","500","1000","The main experiment item","yes","NA","ABX_v3.osexp","/home/ubuntu/Desktop/panara","no","no","mono","no","18","no","white","no","yes","768","8","8","/home/ubuntu/Desktop/panara/subject-703.csv","Jazzy James","3.1.3","3.2.1.wav","3.2.3.wav","3.2.3.wav","0","1","NA","1","NA","1202","NA","1202","NA","1889940","1","2","1024","2","48000","-16","experiment","3.2.1.wav","3.2.3.wav","3.2.3.wav","703","odd","1947141","1949630","1949130","1948379","NA","NA","1946141","1950378","697","NA","NA","1946139","1951580","NA","1946139","1890639","NA","1946141","699","New experiment","NA","0","0","0","yes","1024"
"undefined","undefined","undefined","undefined","black","no","legacy","0","uniform","undefined","undefined","undefined","9","9","19","9","9","NA","9","9","0","0","0","9","9","0","9","0","NA","9","0","Thu 30 May 2019 11:39:31 AM PDT","500","1000","The main experiment item","yes","NA","ABX_v3.osexp","/home/ubuntu/Desktop/panara","yes","no","mono","no","18","no","white","no","yes","768","9","9","/home/ubuntu/Desktop/panara/subject-703.csv","Jazzy James","3.1.3","2.1.5.wav","2.1.5.wav","2.1.3.wav","0","1","NA","1","NA","860","NA","860","NA","1889940","1","2","1024","2","48000","-16","experiment","2.1.3.wav","2.1.5.wav","2.1.5.wav","703","odd","1952767","1955272","1954772","1954008","NA","NA","1951766","1956007","697","NA","NA","1951763","1956868","NA","1951763","1890639","NA","1951766","699","New experiment","NA","0","0","0","yes","1024"
"undefined","undefined","undefined","undefined","black","no","legacy","0","uniform","undefined","undefined","undefined","10","10","21","10","10","NA","10","10","0","0","0","10","10","0","10","0","NA","10","0","Thu 30 May 2019 11:39:31 AM PDT","500","1000","The main experiment item","yes","NA","ABX_v3.osexp","/home/ubuntu/Desktop/panara","no","no","mono","no","18","no","white","no","yes","768","10","10","/home/ubuntu/Desktop/panara/subject-703.csv","Jazzy James","3.1.3","4.1.3.wav","4.1.5.wav","4.1.5.wav","0","0","NA","0","NA","554","NA","554","NA","1889940","1","2","1024","2","48000","-16","experiment","4.1.3.wav","4.1.5.wav","4.1.5.wav","703","odd","1958054","1960494","1959994","1959282","NA","NA","1957054","1961233","697","NA","NA","1957051","1961787","NA","1957051","1890639","NA","1957054","699","New experiment","NA","0","0","0","yes","1024"
"undefined","undefined","undefined","undefined","black","no","legacy","0","uniform","undefined","undefined","undefined","11","11","23","11","11","NA","11","11","0","0","0","11","11","0","11","0","NA","11","0","Thu 30 May 2019 11:39:31 AM PDT","500","1000","The main experiment item","yes","NA","ABX_v3.osexp","/home/ubuntu/Desktop/panara","yes","no","mono","no","18","no","white","no","yes","768","11","11","/home/ubuntu/Desktop/panara/subject-703.csv","Jazzy James","3.1.3","2.1.4.wav","2.1.2.wav","2.1.2.wav","0","0","NA","0","NA","1047","NA","1047","NA","1889940","1","2","1024","2","48000","-16","experiment","2.1.2.wav","2.1.4.wav","2.1.2.wav","703","odd","1962966","1965464","1964964","1964222","NA","NA","1961966","1966228","697","NA","NA","1961963","1967275","NA","1961963","1890639","NA","1961966","699","New experiment","NA","0","0","0","yes","1024"
"undefined","undefined","undefined","undefined","black","no","legacy","0","uniform","undefined","undefined","undefined","12","12","25","12","12","NA","12","12","0","0","0","12","12","0","12","0","NA","12","0","Thu 30 May 2019 11:39:31 AM PDT","500","1000","The main experiment item","yes","NA","ABX_v3.osexp","/home/ubuntu/Desktop/panara","yes","no","mono","no","18","no","white","no","yes","768","12","12","/home/ubuntu/Desktop/panara/subject-703.csv","Jazzy James","3.1.3","1.2.3.wav","1.2.1.wav","1.2.1.wav","0","0","NA","0","NA","1408","NA","1408","NA","1889940","1","2","1024","2","48000","-16","experiment","1.2.1.wav","1.2.3.wav","1.2.1.wav","703","odd","1968461","1970967","1970467","1969705","NA","NA","1967460","1971754","697","NA","NA","1967458","1973163","NA","1967458","1890639","NA","1967461","699","New experiment","NA","0","0","0","yes","1024"
"undefined","undefined","undefined","undefined","black","no","legacy","0","uniform","undefined","undefined","undefined","13","13","27","13","13","NA","13","13","0","0","0","13","13","0","13","0","NA","13","0","Thu 30 May 2019 11:39:31 AM PDT","500","1000","The main experiment item","yes","NA","ABX_v3.osexp","/home/ubuntu/Desktop/panara","no","no","mono","no","18","no","white","no","yes","768","13","13","/home/ubuntu/Desktop/panara/subject-703.csv","Jazzy James","3.1.3","1.2.1.wav","1.2.3.wav","1.2.3.wav","0","0","NA","0","NA","1076","NA","1076","NA","1889940","1","2","1024","2","48000","-16","experiment","1.2.1.wav","1.2.3.wav","1.2.3.wav","703","odd","1974329","1977175","1976675","1975894","NA","NA","1973328","1977958","697","NA","NA","1973326","1979035","NA","1973325","1890639","NA","1973329","699","New experiment","NA","0","0","0","yes","1024"
"undefined","undefined","undefined","undefined","black","no","legacy","0","uniform","undefined","undefined","undefined","14","14","29","14","14","NA","14","14","0","0","0","14","14","0","14","0","NA","14","0","Thu 30 May 2019 11:39:31 AM PDT","500","1000","The main experiment item","yes","NA","ABX_v3.osexp","/home/ubuntu/Desktop/panara","no","no","mono","no","18","no","white","no","yes","768","14","14","/home/ubuntu/Desktop/panara/subject-703.csv","Jazzy James","3.1.3","1.2.2.wav","1.2.2.wav","1.2.4.wav","0","1","NA","1","NA","662","NA","662","NA","1889940","1","2","1024","2","48000","-16","experiment","1.2.2.wav","1.2.4.wav","1.2.2.wav","703","odd","1980212","1982777","1982277","1981499","NA","NA","1979211","1983524","697","NA","NA","1979209","1984186","NA","1979208","1890639","NA","1979212","699","New experiment","NA","0","0","0","yes","1024"
"undefined","undefined","undefined","undefined","black","no","legacy","0","uniform","undefined","undefined","undefined","15","15","31","15","15","NA","15","15","0","0","0","15","15","0","15","0","NA","15","0","Thu 30 May 2019 11:39:31 AM PDT","500","1000","The main experiment item","yes","NA","ABX_v3.osexp","/home/ubuntu/Desktop/panara","yes","no","mono","no","18","no","white","no","yes","768","15","15","/home/ubuntu/Desktop/panara/subject-703.csv","Jazzy James","3.1.3","4.2.5.wav","4.2.3.wav","4.2.3.wav","0","0","NA","0","NA","815","NA","815","NA","1889940","1","2","1024","2","48000","-16","experiment","4.2.3.wav","4.2.5.wav","4.2.3.wav","703","odd","1985369","1987833","1987333","1986583","NA","NA","1984369","1988587","697","NA","NA","1984366","1989402","NA","1984366","1890639","NA","1984369","699","New experiment","NA","0","0","0","yes","1024"
"undefined","undefined","undefined","undefined","black","no","legacy","0","uniform","undefined","undefined","undefined","16","16","33","16","16","NA","16","16","0","0","0","16","16","0","16","0","NA","16","0","Thu 30 May 2019 11:39:31 AM PDT","500","1000","The main experiment item","yes","NA","ABX_v3.osexp","/home/ubuntu/Desktop/panara","yes","no","mono","no","18","no","white","no","yes","768","16","16","/home/ubuntu/Desktop/panara/subject-703.csv","Jazzy James","3.1.3","3.1.5.wav","3.1.3.wav","3.1.3.wav","0","0","NA","0","NA","2361","NA","2361","NA","1889940","1","2","1024","2","48000","-16","experiment","3.1.3.wav","3.1.5.wav","3.1.3.wav","703","odd","1990578","1993116","1992616","1991873","NA","NA","1989577","1993872","697","NA","NA","1989575","1996234","NA","1989575","1890639","NA","1989578","699","New experiment","NA","0","0","0","yes","1024"
"undefined","undefined","undefined","undefined","black","no","legacy","0","uniform","undefined","undefined","undefined","17","17","35","17","17","NA","17","17","0","0","0","17","17","0","17","0","NA","17","0","Thu 30 May 2019 11:39:31 AM PDT","500","1000","The main experiment item","yes","NA","ABX_v3.osexp","/home/ubuntu/Desktop/panara","yes","no","mono","no","18","no","white","no","yes","768","17","17","/home/ubuntu/Desktop/panara/subject-703.csv","Jazzy James","3.1.3","1.1.5.wav","1.1.5.wav","1.1.3.wav","0","1","NA","1","NA","783","NA","783","NA","1889940","1","2","1024","2","48000","-16","experiment","1.1.3.wav","1.1.5.wav","1.1.5.wav","703","odd","1997415","1999949","1999449","1998683","NA","NA","1996414","2000762","697","NA","NA","1996412","2001545","NA","1996411","1890639","NA","1996415","699","New experiment","NA","0","0","0","yes","1024"
"undefined","undefined","undefined","undefined","black","no","legacy","0","uniform","undefined","undefined","undefined","18","18","37","18","18","NA","18","18","0","0","0","18","18","0","18","0","NA","18","0","Thu 30 May 2019 11:39:31 AM PDT","500","1000","The main experiment item","yes","NA","ABX_v3.osexp","/home/ubuntu/Desktop/panara","no","no","mono","no","18","no","white","no","yes","768","18","18","/home/ubuntu/Desktop/panara/subject-703.csv","Jazzy James","3.1.3","4.1.2.wav","4.1.2.wav","4.1.4.wav","0","0","NA","0","NA","2745","NA","2745","NA","1889940","1","2","1024","2","48000","-16","experiment","4.1.2.wav","4.1.4.wav","4.1.2.wav","703","odd","2002721","2005162","2004662","2003931","NA","NA","2001721","2005887","697","NA","NA","2001718","2008633","NA","2001718","1890639","NA","2001721","699","New experiment","NA","0","0","0","yes","1024"
"undefined","undefined","undefined","undefined","black","no","legacy","0","uniform","undefined","undefined","undefined","19","19","39","19","19","NA","19","19","0","0","0","19","19","0","19","0","NA","19","0","Thu 30 May 2019 11:39:31 AM PDT","500","1000","The main experiment item","yes","NA","ABX_v3.osexp","/home/ubuntu/Desktop/panara","yes","no","mono","no","18","no","white","no","yes","768","19","19","/home/ubuntu/Desktop/panara/subject-703.csv","Jazzy James","3.1.3","2.2.5.wav","2.2.5.wav","2.2.3.wav","0","1","NA","1","NA","1413","NA","1413","NA","1889940","1","2","1024","2","48000","-16","experiment","2.2.3.wav","2.2.5.wav","2.2.5.wav","703","odd","2009799","2012272","2011772","2011050","NA","NA","2008799","2013027","697","NA","NA","2008796","2014441","NA","2008796","1890639","NA","2008799","699","New experiment","NA","0","0","0","yes","1024"
"undefined","undefined","undefined","undefined","black","no","legacy","0","uniform","undefined","undefined","undefined","20","20","41","20","20","NA","20","20","0","0","0","20","20","0","20","0","NA","20","0","Thu 30 May 2019 11:39:31 AM PDT","500","1000","The main experiment item","yes","NA","ABX_v3.osexp","/home/ubuntu/Desktop/panara","yes","no","mono","no","18","no","white","no","yes","768","20","20","/home/ubuntu/Desktop/panara/subject-703.csv","Jazzy James","3.1.3","2.2.4.wav","2.2.4.wav","2.2.2.wav","0","1","NA","1","NA","767","NA","767","NA","1889940","1","2","1024","2","48000","-16","experiment","2.2.2.wav","2.2.4.wav","2.2.4.wav","703","odd","2015614","2018069","2017569","2016831","NA","NA","2014614","2018793","697","NA","NA","2014612","2019560","NA","2014612","1890639","NA","2014614","699","New experiment","NA","0","0","0","yes","1024"
"undefined","undefined","undefined","undefined","black","no","legacy","0","uniform","undefined","undefined","undefined","21","21","43","21","21","NA","21","21","0","0","0","21","21","0","21","0","NA","21","0","Thu 30 May 2019 11:39:31 AM PDT","500","1000","The main experiment item","yes","NA","ABX_v3.osexp","/home/ubuntu/Desktop/panara","yes","no","mono","no","18","no","white","no","yes","768","21","21","/home/ubuntu/Desktop/panara/subject-703.csv","Jazzy James","3.1.3","5.2.5.wav","5.2.5.wav","5.2.3.wav","0","0","NA","0","NA","985","NA","985","NA","1889940","1","2","1024","2","48000","-16","experiment","5.2.3.wav","5.2.5.wav","5.2.5.wav","703","odd","2020702","2023189","2022689","2021936","NA","NA","2019701","2023920","697","NA","NA","2019699","2024905","NA","2019699","1890639","NA","2019701","699","New experiment","NA","0","0","0","yes","1024"
"undefined","undefined","undefined","undefined","black","no","legacy","0","uniform","undefined","undefined","undefined","22","22","45","22","22","NA","22","22","0","0","0","22","22","0","22","0","NA","22","0","Thu 30 May 2019 11:39:31 AM PDT","500","1000","The main experiment item","yes","NA","ABX_v3.osexp","/home/ubuntu/Desktop/panara","no","no","mono","no","18","no","white","no","yes","768","22","22","/home/ubuntu/Desktop/panara/subject-703.csv","Jazzy James","3.1.3","5.2.1.wav","5.2.1.wav","5.2.3.wav","0","0","NA","0","NA","2763","NA","2763","NA","1889940","1","2","1024","2","48000","-16","experiment","5.2.1.wav","5.2.3.wav","5.2.1.wav","703","odd","2026080","2028459","2027959","2027262","NA","NA","2025079","2029181","697","NA","NA","2025077","2031945","NA","2025077","1890639","NA","2025080","699","New experiment","NA","0","0","0","yes","1024"
"undefined","undefined","undefined","undefined","black","no","legacy","0","uniform","undefined","undefined","undefined","23","23","47","23","23","NA","23","23","0","0","0","23","23","0","23","0","NA","23","0","Thu 30 May 2019 11:39:31 AM PDT","500","1000","The main experiment item","yes","NA","ABX_v3.osexp","/home/ubuntu/Desktop/panara","yes","no","mono","no","18","no","white","no","yes","768","23","23","/home/ubuntu/Desktop/panara/subject-703.csv","Jazzy James","3.1.3","2.2.5.wav","2.2.3.wav","2.2.3.wav","0","0","NA","0","NA","888","NA","888","NA","1889940","1","2","1024","2","48000","-16","experiment","2.2.3.wav","2.2.5.wav","2.2.3.wav","703","odd","2033071","2035553","2035053","2034325","NA","NA","2032070","2036279","697","NA","NA","2032068","2037167","NA","2032068","1890639","NA","2032071","699","New experiment","NA","0","0","0","yes","1024"
"undefined","undefined","undefined","undefined","black","no","legacy","0","uniform","undefined","undefined","undefined","24","24","49","24","24","NA","24","24","0","0","0","24","24","0","24","0","NA","24","0","Thu 30 May 2019 11:39:31 AM PDT","500","1000","The main experiment item","yes","NA","ABX_v3.osexp","/home/ubuntu/Desktop/panara","no","no","mono","no","18","no","white","no","yes","768","24","24","/home/ubuntu/Desktop/panara/subject-703.csv","Jazzy James","3.1.3","5.2.2.wav","5.2.2.wav","5.2.4.wav","0","0","NA","0","NA","863","NA","863","NA","1889940","1","2","1024","2","48000","-16","experiment","5.2.2.wav","5.2.4.wav","5.2.2.wav","703","odd","2038319","2040766","2040266","2039542","NA","NA","2037319","2041520","697","NA","NA","2037317","2042383","NA","2037317","1890639","NA","2037319","699","New experiment","NA","0","0","0","yes","1024"
"undefined","undefined","undefined","undefined","black","no","legacy","0","uniform","undefined","undefined","undefined","25","25","51","25","25","NA","25","25","0","0","0","25","25","0","25","0","NA","25","0","Thu 30 May 2019 11:39:31 AM PDT","500","1000","The main experiment item","yes","NA","ABX_v3.osexp","/home/ubuntu/Desktop/panara","yes","no","mono","no","18","no","white","no","yes","768","25","25","/home/ubuntu/Desktop/panara/subject-703.csv","Jazzy James","3.1.3","4.2.3.wav","4.2.1.wav","4.2.1.wav","0","0","NA","0","NA","815","NA","815","NA","1889940","1","2","1024","2","48000","-16","experiment","4.2.1.wav","4.2.3.wav","4.2.1.wav","703","odd","2043561","2046056","2045556","2044803","NA","NA","2042560","2046775","697","NA","NA","2042558","2047591","NA","2042557","1890639","NA","2042561","699","New experiment","NA","0","0","0","yes","1024"
"undefined","undefined","undefined","undefined","black","no","legacy","0","uniform","undefined","undefined","undefined","26","26","53","26","26","NA","26","26","0","0","0","26","26","0","26","0","NA","26","0","Thu 30 May 2019 11:39:31 AM PDT","500","1000","The main experiment item","yes","NA","ABX_v3.osexp","/home/ubuntu/Desktop/panara","no","no","mono","no","18","no","white","no","yes","768","26","26","/home/ubuntu/Desktop/panara/subject-703.csv","Jazzy James","3.1.3","3.2.3.wav","3.2.5.wav","3.2.5.wav","0","0","NA","0","NA","1731","NA","1731","NA","1889940","1","2","1024","2","48000","-16","experiment","3.2.3.wav","3.2.5.wav","3.2.5.wav","703","odd","2048757","2051282","2050782","2050002","NA","NA","2047757","2052067","697","NA","NA","2047755","2053798","NA","2047755","1890639","NA","2047757","699","New experiment","NA","0","0","0","yes","1024"
"undefined","undefined","undefined","undefined","black","no","legacy","0","uniform","undefined","undefined","undefined","27","27","55","27","27","NA","27","27","0","0","0","27","27","0","27","0","NA","27","0","Thu 30 May 2019 11:39:31 AM PDT","500","1000","The main experiment item","yes","NA","ABX_v3.osexp","/home/ubuntu/Desktop/panara","yes","no","mono","no","18","no","white","no","yes","768","27","27","/home/ubuntu/Desktop/panara/subject-703.csv","Jazzy James","3.1.3","3.1.3.wav","3.1.1.wav","3.1.1.wav","0","0","NA","0","NA","1525","NA","1525","NA","1889940","1","2","1024","2","48000","-16","experiment","3.1.1.wav","3.1.3.wav","3.1.1.wav","703","odd","2054976","2057492","2056992","2056237","NA","NA","2053976","2058257","697","NA","NA","2053973","2059782","NA","2053973","1890639","NA","2053976","699","New experiment","NA","0","0","0","yes","1024"
"undefined","undefined","undefined","undefined","black","no","legacy","0","uniform","undefined","undefined","undefined","28","28","57","28","28","NA","28","28","0","0","0","28","28","0","28","0","NA","28","0","Thu 30 May 2019 11:39:31 AM PDT","500","1000","The main experiment item","yes","NA","ABX_v3.osexp","/home/ubuntu/Desktop/panara","no","no","mono","no","18","no","white","no","yes","768","28","28","/home/ubuntu/Desktop/panara/subject-703.csv","Jazzy James","3.1.3","3.1.2.wav","3.1.4.wav","3.1.4.wav","0","0","NA","0","NA","871","NA","871","NA","1889940","1","2","1024","2","48000","-16","experiment","3.1.2.wav","3.1.4.wav","3.1.4.wav","703","odd","2060934","2063486","2062986","2062206","NA","NA","2059934","2064246","697","NA","NA","2059931","2065118","NA","2059931","1890639","NA","2059934","699","New experiment","NA","0","0","0","yes","1024"
"undefined","undefined","undefined","undefined","black","no","legacy","0","uniform","undefined","undefined","undefined","29","29","59","29","29","NA","29","29","0","0","0","29","29","0","29","0","NA","29","0","Thu 30 May 2019 11:39:31 AM PDT","500","1000","The main experiment item","yes","NA","ABX_v3.osexp","/home/ubuntu/Desktop/panara","yes","no","mono","no","18","no","white","no","yes","768","29","29","/home/ubuntu/Desktop/panara/subject-703.csv","Jazzy James","3.1.3","1.1.3.wav","1.1.1.wav","1.1.1.wav","0","0","NA","0","NA","1807","NA","1807","NA","1889940","1","2","1024","2","48000","-16","experiment","1.1.1.wav","1.1.3.wav","1.1.1.wav","703","odd","2066239","2068840","2068340","2067559","NA","NA","2065239","2069622","697","NA","NA","2065236","2071429","NA","2065236","1890639","NA","2065239","699","New experiment","NA","0","0","0","yes","1024"
"undefined","undefined","undefined","undefined","black","no","legacy","0","uniform","undefined","undefined","undefined","30","30","61","30","30","NA","30","30","0","0","0","30","30","0","30","0","NA","30","0","Thu 30 May 2019 11:39:31 AM PDT","500","1000","The main experiment item","yes","NA","ABX_v3.osexp","/home/ubuntu/Desktop/panara","yes","no","mono","no","18","no","white","no","yes","768","30","30","/home/ubuntu/Desktop/panara/subject-703.csv","Jazzy James","3.1.3","2.1.3.wav","2.1.3.wav","2.1.1.wav","0","1","NA","1","NA","1050","NA","1050","NA","1889940","1","2","1024","2","48000","-16","experiment","2.1.1.wav","2.1.3.wav","2.1.3.wav","703","odd","2072580","2075088","2074588","2073837","NA","NA","2071580","2075844","697","NA","NA","2071577","2076894","NA","2071577","1890639","NA","2071580","699","New experiment","NA","0","0","0","yes","1024"
"undefined","undefined","undefined","undefined","black","no","legacy","0","uniform","undefined","undefined","undefined","31","31","63","31","31","NA","31","31","0","0","0","31","31","0","31","0","NA","31","0","Thu 30 May 2019 11:39:31 AM PDT","500","1000","The main experiment item","yes","NA","ABX_v3.osexp","/home/ubuntu/Desktop/panara","no","no","mono","no","18","no","white","no","yes","768","31","31","/home/ubuntu/Desktop/panara/subject-703.csv","Jazzy James","3.1.3","1.1.2.wav","1.1.4.wav","1.1.4.wav","0","0","NA","0","NA","1186","NA","1186","NA","1889940","1","2","1024","2","48000","-16","experiment","1.1.2.wav","1.1.4.wav","1.1.4.wav","703","odd","2078046","2080627","2080127","2079348","NA","NA","2077046","2081402","697","NA","NA","2077043","2082589","NA","2077043","1890639","NA","2077046","699","New experiment","NA","0","0","0","yes","1024"
"undefined","undefined","undefined","undefined","black","no","legacy","0","uniform","undefined","undefined","undefined","32","32","65","32","32","NA","32","32","0","0","0","32","32","0","32","0","NA","32","0","Thu 30 May 2019 11:39:31 AM PDT","500","1000","The main experiment item","yes","NA","ABX_v3.osexp","/home/ubuntu/Desktop/panara","yes","no","mono","no","18","no","white","no","yes","768","32","32","/home/ubuntu/Desktop/panara/subject-703.csv","Jazzy James","3.1.3","1.2.5.wav","1.2.3.wav","1.2.3.wav","0","0","NA","0","NA","1146","NA","1146","NA","1889940","1","2","1024","2","48000","-16","experiment","1.2.3.wav","1.2.5.wav","1.2.3.wav","703","odd","2083763","2086337","2085837","2085058","NA","NA","2082763","2087114","697","NA","NA","2082760","2088261","NA","2082760","1890639","NA","2082763","699","New experiment","NA","0","0","0","yes","1024"
"undefined","undefined","undefined","undefined","black","no","legacy","0","uniform","undefined","undefined","undefined","33","33","67","33","33","NA","33","33","0","0","0","33","33","0","33","0","NA","33","0","Thu 30 May 2019 11:39:31 AM PDT","500","1000","The main experiment item","yes","NA","ABX_v3.osexp","/home/ubuntu/Desktop/panara","yes","no","mono","no","18","no","white","no","yes","768","33","33","/home/ubuntu/Desktop/panara/subject-703.csv","Jazzy James","3.1.3","5.2.5.wav","5.2.3.wav","5.2.3.wav","0","1","NA","1","NA","1888","NA","1888","NA","1889940","1","2","1024","2","48000","-16","experiment","5.2.3.wav","5.2.5.wav","5.2.3.wav","703","odd","2089430","2091905","2091405","2090682","NA","NA","2088429","2092660","697","NA","NA","2088427","2094548","NA","2088427","1890639","NA","2088430","699","New experiment","NA","0","0","0","yes","1024"
"undefined","undefined","undefined","undefined","black","no","legacy","0","uniform","undefined","undefined","undefined","34","34","69","34","34","NA","34","34","0","0","0","34","34","0","34","0","NA","34","0","Thu 30 May 2019 11:39:31 AM PDT","500","1000","The main experiment item","yes","NA","ABX_v3.osexp","/home/ubuntu/Desktop/panara","no","no","mono","no","18","no","white","no","yes","768","34","34","/home/ubuntu/Desktop/panara/subject-703.csv","Jazzy James","3.1.3","3.1.1.wav","3.1.3.wav","3.1.3.wav","0","0","NA","0","NA","943","NA","943","NA","1889940","1","2","1024","2","48000","-16","experiment","3.1.1.wav","3.1.3.wav","3.1.3.wav","703","odd","2095727","2098227","2097727","2096968","NA","NA","2094726","2098981","697","NA","NA","2094723","2099925","NA","2094723","1890639","NA","2094726","699","New experiment","NA","0","0","0","yes","1024"
"undefined","undefined","undefined","undefined","black","no","legacy","0","uniform","undefined","undefined","undefined","35","35","71","35","35","NA","35","35","0","0","0","35","35","0","35","0","NA","35","0","Thu 30 May 2019 11:39:31 AM PDT","500","1000","The main experiment item","yes","NA","ABX_v3.osexp","/home/ubuntu/Desktop/panara","yes","no","mono","no","18","no","white","no","yes","768","35","35","/home/ubuntu/Desktop/panara/subject-703.csv","Jazzy James","3.1.3","4.1.3.wav","4.1.1.wav","4.1.1.wav","0","0","NA","0","NA","2578","NA","2578","NA","1889940","1","2","1024","2","48000","-16","experiment","4.1.1.wav","4.1.3.wav","4.1.1.wav","703","odd","2101075","2103518","2103018","2102297","NA","NA","2100074","2104257","697","NA","NA","2100072","2106836","NA","2100072","1890639","NA","2100075","699","New experiment","NA","0","0","0","yes","1024"
"undefined","undefined","undefined","undefined","black","no","legacy","0","uniform","undefined","undefined","undefined","36","36","73","36","36","NA","36","36","0","0","0","36","36","0","36","0","NA","36","0","Thu 30 May 2019 11:39:31 AM PDT","500","1000","The main experiment item","yes","NA","ABX_v3.osexp","/home/ubuntu/Desktop/panara","yes","no","mono","no","18","no","white","no","yes","768","36","36","/home/ubuntu/Desktop/panara/subject-703.csv","Jazzy James","3.1.3","4.2.5.wav","4.2.5.wav","4.2.3.wav","0","1","NA","1","NA","993","NA","993","NA","1889940","1","2","1024","2","48000","-16","experiment","4.2.3.wav","4.2.5.wav","4.2.5.wav","703","odd","2108000","2110457","2109957","2109231","NA","NA","2106999","2111186","697","NA","NA","2106996","2112179","NA","2106996","1890639","NA","2107000","699","New experiment","NA","0","0","0","yes","1024"
"undefined","undefined","undefined","undefined","black","no","legacy","0","uniform","undefined","undefined","undefined","37","37","75","37","37","NA","37","37","0","0","0","37","37","0","37","0","NA","37","0","Thu 30 May 2019 11:39:31 AM PDT","500","1000","The main experiment item","yes","NA","ABX_v3.osexp","/home/ubuntu/Desktop/panara","no","no","mono","no","18","no","white","no","yes","768","37","37","/home/ubuntu/Desktop/panara/subject-703.csv","Jazzy James","3.1.3","1.1.2.wav","1.1.2.wav","1.1.4.wav","0","0","NA","0","NA","851","NA","851","NA","1889940","1","2","1024","2","48000","-16","experiment","1.1.2.wav","1.1.4.wav","1.1.2.wav","703","odd","2113353","2115939","2115439","2114628","NA","NA","2112352","2116696","697","NA","NA","2112350","2117547","NA","2112350","1890639","NA","2112353","699","New experiment","NA","0","0","0","yes","1024"
"undefined","undefined","undefined","undefined","black","no","legacy","0","uniform","undefined","undefined","undefined","38","38","77","38","38","NA","38","38","0","0","0","38","38","0","38","0","NA","38","0","Thu 30 May 2019 11:39:31 AM PDT","500","1000","The main experiment item","yes","NA","ABX_v3.osexp","/home/ubuntu/Desktop/panara","no","no","mono","no","18","no","white","no","yes","768","38","38","/home/ubuntu/Desktop/panara/subject-703.csv","Jazzy James","3.1.3","3.2.2.wav","3.2.4.wav","3.2.4.wav","0","1","NA","1","NA","1569","NA","1569","NA","1889940","1","2","1024","2","48000","-16","experiment","3.2.2.wav","3.2.4.wav","3.2.4.wav","703","odd","2118750","2121266","2120766","2120024","NA","NA","2117750","2122033","697","NA","NA","2117748","2123603","NA","2117748","1890639","NA","2117750","699","New experiment","NA","0","0","0","yes","1024"
"undefined","undefined","undefined","undefined","black","no","legacy","0","uniform","undefined","undefined","undefined","39","39","79","39","39","NA","39","39","0","0","0","39","39","0","39","0","NA","39","0","Thu 30 May 2019 11:39:31 AM PDT","500","1000","The main experiment item","yes","NA","ABX_v3.osexp","/home/ubuntu/Desktop/panara","yes","no","mono","no","18","no","white","no","yes","768","39","39","/home/ubuntu/Desktop/panara/subject-703.csv","Jazzy James","3.1.3","1.2.5.wav","1.2.5.wav","1.2.3.wav","0","0","NA","0","NA","4109","NA","4109","NA","1889940","1","2","1024","2","48000","-16","experiment","1.2.3.wav","1.2.5.wav","1.2.5.wav","703","odd","2124782","2127350","2126850","2126065","NA","NA","2123782","2128133","697","NA","NA","2123780","2132242","NA","2123780","1890639","NA","2123782","699","New experiment","NA","0","0","0","yes","1024"
"undefined","undefined","undefined","undefined","black","no","legacy","0","uniform","undefined","undefined","undefined","40","40","81","40","40","NA","40","40","0","0","0","40","40","0","40","0","NA","40","0","Thu 30 May 2019 11:39:31 AM PDT","500","1000","The main experiment item","yes","NA","ABX_v3.osexp","/home/ubuntu/Desktop/panara","yes","no","mono","no","18","no","white","no","yes","768","40","40","/home/ubuntu/Desktop/panara/subject-703.csv","Jazzy James","3.1.3","2.2.3.wav","2.2.3.wav","2.2.1.wav","0","1","NA","1","NA","764","NA","764","NA","1889940","1","2","1024","2","48000","-16","experiment","2.2.1.wav","2.2.3.wav","2.2.3.wav","703","odd","2133419","2135862","2135362","2134643","NA","NA","2132418","2136573","697","NA","NA","2132416","2137338","NA","2132416","1890639","NA","2132419","699","New experiment","NA","0","0","0","yes","1024"
"undefined","undefined","undefined","undefined","black","no","legacy","0","uniform","undefined","undefined","undefined","41","41","83","41","41","NA","41","41","0","0","0","41","41","0","41","0","NA","41","0","Thu 30 May 2019 11:39:31 AM PDT","500","1000","The main experiment item","yes","NA","ABX_v3.osexp","/home/ubuntu/Desktop/panara","no","no","mono","no","18","no","white","no","yes","768","41","41","/home/ubuntu/Desktop/panara/subject-703.csv","Jazzy James","3.1.3","2.1.2.wav","2.1.4.wav","2.1.4.wav","0","0","NA","0","NA","771","NA","771","NA","1889940","1","2","1024","2","48000","-16","experiment","2.1.2.wav","2.1.4.wav","2.1.4.wav","703","odd","2138524","2141037","2140537","2139787","NA","NA","2137524","2141782","697","NA","NA","2137521","2142554","NA","2137521","1890639","NA","2137524","699","New experiment","NA","0","0","0","yes","1024"
"undefined","undefined","undefined","undefined","black","no","legacy","0","uniform","undefined","undefined","undefined","42","42","85","42","42","NA","42","42","0","0","0","42","42","0","42","0","NA","42","0","Thu 30 May 2019 11:39:31 AM PDT","500","1000","The main experiment item","yes","NA","ABX_v3.osexp","/home/ubuntu/Desktop/panara","yes","no","mono","no","18","no","white","no","yes","768","42","42","/home/ubuntu/Desktop/panara/subject-703.csv","Jazzy James","3.1.3","2.1.5.wav","2.1.3.wav","2.1.3.wav","0","0","NA","0","NA","650","NA","650","NA","1889940","1","2","1024","2","48000","-16","experiment","2.1.3.wav","2.1.5.wav","2.1.3.wav","703","odd","2143713","2146246","2145746","2144975","NA","NA","2142712","2146991","697","NA","NA","2142710","2147641","NA","2142710","1890639","NA","2142713","699","New experiment","NA","0","0","0","yes","1024"
"undefined","undefined","undefined","undefined","black","no","legacy","0","uniform","undefined","undefined","undefined","43","43","87","43","43","NA","43","43","0","0","0","43","43","0","43","0","NA","43","0","Thu 30 May 2019 11:39:31 AM PDT","500","1000","The main experiment item","yes","NA","ABX_v3.osexp","/home/ubuntu/Desktop/panara","no","no","mono","no","18","no","white","no","yes","768","43","43","/home/ubuntu/Desktop/panara/subject-703.csv","Jazzy James","3.1.3","2.2.1.wav","2.2.1.wav","2.2.3.wav","0","1","NA","1","NA","550","NA","550","NA","1889940","1","2","1024","2","48000","-16","experiment","2.2.1.wav","2.2.3.wav","2.2.1.wav","703","odd","2148792","2151213","2150713","2150001","NA","NA","2147791","2151963","697","NA","NA","2147789","2152513","NA","2147789","1890639","NA","2147792","699","New experiment","NA","0","0","0","yes","1024"
"undefined","undefined","undefined","undefined","black","no","legacy","0","uniform","undefined","undefined","undefined","44","44","89","44","44","NA","44","44","0","0","0","44","44","0","44","0","NA","44","0","Thu 30 May 2019 11:39:31 AM PDT","500","1000","The main experiment item","yes","NA","ABX_v3.osexp","/home/ubuntu/Desktop/panara","no","no","mono","no","18","no","white","no","yes","768","44","44","/home/ubuntu/Desktop/panara/subject-703.csv","Jazzy James","3.1.3","3.1.3.wav","3.1.5.wav","3.1.5.wav","0","0","NA","0","NA","1123","NA","1123","NA","1889940","1","2","1024","2","48000","-16","experiment","3.1.3.wav","3.1.5.wav","3.1.5.wav","703","odd","2153691","2156238","2155738","2154954","NA","NA","2152691","2157021","697","NA","NA","2152688","2158145","NA","2152688","1890639","NA","2152691","699","New experiment","NA","0","0","0","yes","1024"
"undefined","undefined","undefined","undefined","black","no","legacy","0","uniform","undefined","undefined","undefined","45","45","91","45","45","NA","45","45","0","0","0","45","45","0","45","0","NA","45","0","Thu 30 May 2019 11:39:31 AM PDT","500","1000","The main experiment item","yes","NA","ABX_v3.osexp","/home/ubuntu/Desktop/panara","yes","no","mono","no","18","no","white","no","yes","768","45","45","/home/ubuntu/Desktop/panara/subject-703.csv","Jazzy James","3.1.3","1.2.4.wav","1.2.4.wav","1.2.2.wav","0","1","NA","1","NA","1229","NA","1229","NA","1889940","1","2","1024","2","48000","-16","experiment","1.2.2.wav","1.2.4.wav","1.2.4.wav","703","odd","2159287","2161782","2161282","2160517","NA","NA","2158287","2162555","697","NA","NA","2158285","2163785","NA","2158285","1890639","NA","2158287","699","New experiment","NA","0","0","0","yes","1024"
"undefined","undefined","undefined","undefined","black","no","legacy","0","uniform","undefined","undefined","undefined","46","46","93","46","46","NA","46","46","0","0","0","46","46","0","46","0","NA","46","0","Thu 30 May 2019 11:39:31 AM PDT","500","1000","The main experiment item","yes","NA","ABX_v3.osexp","/home/ubuntu/Desktop/panara","yes","no","mono","no","18","no","white","no","yes","768","46","46","/home/ubuntu/Desktop/panara/subject-703.csv","Jazzy James","3.1.3","1.1.5.wav","1.1.3.wav","1.1.3.wav","0","0","NA","0","NA","600","NA","600","NA","1889940","1","2","1024","2","48000","-16","experiment","1.1.3.wav","1.1.5.wav","1.1.3.wav","703","odd","2164930","2167511","2167011","2166196","NA","NA","2163930","2168305","697","NA","NA","2163928","2168905","NA","2163928","1890639","NA","2163930","699","New experiment","NA","0","0","0","yes","1024"
"undefined","undefined","undefined","undefined","black","no","legacy","0","uniform","undefined","undefined","undefined","47","47","95","47","47","NA","47","47","0","0","0","47","47","0","47","0","NA","47","0","Thu 30 May 2019 11:39:31 AM PDT","500","1000","The main experiment item","yes","NA","ABX_v3.osexp","/home/ubuntu/Desktop/panara","yes","no","mono","no","18","no","white","no","yes","768","47","47","/home/ubuntu/Desktop/panara/subject-703.csv","Jazzy James","3.1.3","3.1.4.wav","3.1.2.wav","3.1.2.wav","0","0","NA","0","NA","1003","NA","1003","NA","1889940","1","2","1024","2","48000","-16","experiment","3.1.2.wav","3.1.4.wav","3.1.2.wav","703","odd","2170083","2172639","2172139","2171351","NA","NA","2169083","2173412","697","NA","NA","2169080","2174416","NA","2169080","1890639","NA","2169083","699","New experiment","NA","0","0","0","yes","1024"
"undefined","undefined","undefined","undefined","black","no","legacy","0","uniform","undefined","undefined","undefined","48","48","97","48","48","NA","48","48","0","0","0","48","48","0","48","0","NA","48","0","Thu 30 May 2019 11:39:31 AM PDT","500","1000","The main experiment item","yes","NA","ABX_v3.osexp","/home/ubuntu/Desktop/panara","yes","no","mono","no","18","no","white","no","yes","768","48","48","/home/ubuntu/Desktop/panara/subject-703.csv","Jazzy James","3.1.3","3.2.5.wav","3.2.3.wav","3.2.3.wav","0","0","NA","0","NA","2171","NA","2171","NA","1889940","1","2","1024","2","48000","-16","experiment","3.2.3.wav","3.2.5.wav","3.2.3.wav","703","odd","2175583","2178100","2177600","2176860","NA","NA","2174582","2178852","697","NA","NA","2174579","2181024","NA","2174579","1890639","NA","2174583","699","New experiment","NA","0","0","0","yes","1024"
"undefined","undefined","undefined","undefined","black","no","legacy","0","uniform","undefined","undefined","undefined","49","49","99","49","49","NA","49","49","0","0","0","49","49","0","49","0","NA","49","0","Thu 30 May 2019 11:39:31 AM PDT","500","1000","The main experiment item","yes","NA","ABX_v3.osexp","/home/ubuntu/Desktop/panara","no","no","mono","no","18","no","white","no","yes","768","49","49","/home/ubuntu/Desktop/panara/subject-703.csv","Jazzy James","3.1.3","2.2.2.wav","2.2.2.wav","2.2.4.wav","0","1","NA","1","NA","742","NA","742","NA","1889940","1","2","1024","2","48000","-16","experiment","2.2.2.wav","2.2.4.wav","2.2.2.wav","703","odd","2182183","2184607","2184107","2183392","NA","NA","2181183","2185321","697","NA","NA","2181180","2186063","NA","2181180","1890639","NA","2181183","699","New experiment","NA","0","0","0","yes","1024"
"undefined","undefined","undefined","undefined","black","no","legacy","0","uniform","undefined","undefined","undefined","50","50","101","50","50","NA","50","50","0","0","0","50","50","0","50","0","NA","50","0","Thu 30 May 2019 11:39:31 AM PDT","500","1000","The main experiment item","yes","NA","ABX_v3.osexp","/home/ubuntu/Desktop/panara","no","no","mono","no","18","no","white","no","yes","768","50","50","/home/ubuntu/Desktop/panara/subject-703.csv","Jazzy James","3.1.3","5.2.1.wav","5.2.3.wav","5.2.3.wav","0","0","g","0","NA","5346","14275","5346","NA","1889940","1","2","1024","2","48000","-16","experiment","5.2.1.wav","5.2.3.wav","5.2.3.wav","703","odd","2201505","2203925","2203425","2202713","2186227","NA","2200505","2204652","697","NA","NA","2186225","2209999","NA","2186225","1890639","NA","2200505","699","New experiment","NA","0","0","0","yes","1024"
"undefined","undefined","undefined","undefined","black","no","legacy","0","uniform","undefined","undefined","undefined","51","51","103","51","51","NA","51","51","0","0","0","51","51","0","51","0","NA","51","0","Thu 30 May 2019 11:39:31 AM PDT","500","1000","The main experiment item","yes","NA","ABX_v3.osexp","/home/ubuntu/Desktop/panara","yes","no","mono","no","18","no","white","no","yes","768","51","51","/home/ubuntu/Desktop/panara/subject-703.csv","Jazzy James","3.1.3","4.1.4.wav","4.1.4.wav","4.1.2.wav","0","1","g","1","NA","3579","14275","3579","NA","1889940","1","2","1024","2","48000","-16","experiment","4.1.2.wav","4.1.4.wav","4.1.4.wav","703","odd","2211182","2213656","2213156","2212442","2186227","NA","2210182","2214371","697","NA","NA","2210179","2217951","NA","2210179","1890639","NA","2210182","699","New experiment","NA","0","0","0","yes","1024"
"undefined","undefined","undefined","undefined","black","no","legacy","0","uniform","undefined","undefined","undefined","52","52","105","52","52","NA","52","52","0","0","0","52","52","0","52","0","NA","52","0","Thu 30 May 2019 11:39:31 AM PDT","500","1000","The main experiment item","yes","NA","ABX_v3.osexp","/home/ubuntu/Desktop/panara","no","no","mono","no","18","no","white","no","yes","768","52","52","/home/ubuntu/Desktop/panara/subject-703.csv","Jazzy James","3.1.3","4.2.1.wav","4.2.3.wav","4.2.3.wav","0","0","g","0","NA","1006","14275","1006","NA","1889940","1","2","1024","2","48000","-16","experiment","4.2.1.wav","4.2.3.wav","4.2.3.wav","703","odd","2219125","2221622","2221122","2220377","2186227","NA","2218124","2222375","697","NA","NA","2218122","2223381","NA","2218122","1890639","NA","2218125","699","New experiment","NA","0","0","0","yes","1024"
"undefined","undefined","undefined","undefined","black","no","legacy","0","uniform","undefined","undefined","undefined","53","53","107","53","53","NA","53","53","0","0","0","53","53","0","53","0","NA","53","0","Thu 30 May 2019 11:39:31 AM PDT","500","1000","The main experiment item","yes","NA","ABX_v3.osexp","/home/ubuntu/Desktop/panara","no","no","mono","no","18","no","white","no","yes","768","53","53","/home/ubuntu/Desktop/panara/subject-703.csv","Jazzy James","3.1.3","4.2.2.wav","4.2.4.wav","4.2.4.wav","0","1","g","1","NA","1382","14275","1382","NA","1889940","1","2","1024","2","48000","-16","experiment","4.2.2.wav","4.2.4.wav","4.2.4.wav","703","odd","2224542","2226964","2226464","2225752","2186227","NA","2223542","2227710","697","NA","NA","2223539","2229093","NA","2223539","1890639","NA","2223542","699","New experiment","NA","0","0","0","yes","1024"
"undefined","undefined","undefined","undefined","black","no","legacy","0","uniform","undefined","undefined","undefined","54","54","109","54","54","NA","54","54","0","0","0","54","54","0","54","0","NA","54","0","Thu 30 May 2019 11:39:31 AM PDT","500","1000","The main experiment item","yes","NA","ABX_v3.osexp","/home/ubuntu/Desktop/panara","yes","no","mono","no","18","no","white","no","yes","768","0","53","/home/ubuntu/Desktop/panara/subject-703.csv","Jazzy James","3.1.3","4.1.4.wav","4.1.2.wav","3.1.2.wav","0","0","g","0","NA","3701","14275","3701","NA","1889940","1","2","1024","2","48000","-16","experiment","3.1.2.wav","4.1.4.wav","4.1.2.wav","703","odd","2230277","2232730","2232230","2231514","2186227","NA","2229276","2233511","697","NA","NA","2229274","2237213","2229210","2229274","1890639","NA","2229277","699","New experiment","NA","0","0","0","yes","1024"
"undefined","undefined","undefined","undefined","black","no","legacy","0","uniform","undefined","undefined","undefined","55","55","111","55","55","NA","55","55","0","0","0","55","55","0","55","0","NA","55","0","Thu 30 May 2019 11:39:31 AM PDT","500","1000","The main experiment item","yes","NA","ABX_v3.osexp","/home/ubuntu/Desktop/panara","no","no","mono","no","18","no","white","no","yes","768","1","53","/home/ubuntu/Desktop/panara/subject-703.csv","Jazzy James","3.1.3","3.2.3.wav","4.2.3.wav","4.2.5.wav","0","1","g","1","NA","793","14275","793","NA","1889940","1","2","1024","2","48000","-16","experiment","3.2.3.wav","4.2.5.wav","4.2.3.wav","703","odd","2238377","2240880","2240380","2239633","2186227","NA","2237376","2241603","697","NA","NA","2237374","2242396","2229210","2237374","1890639","NA","2237377","699","New experiment","NA","0","0","0","yes","1024"
"undefined","undefined","undefined","undefined","black","no","legacy","0","uniform","undefined","undefined","undefined","56","56","113","56","56","NA","56","56","0","0","0","56","56","0","56","0","NA","56","0","Thu 30 May 2019 11:39:31 AM PDT","500","1000","The main experiment item","yes","NA","ABX_v3.osexp","/home/ubuntu/Desktop/panara","yes","no","mono","no","18","no","white","no","yes","768","2","53","/home/ubuntu/Desktop/panara/subject-703.csv","Jazzy James","3.1.3","4.1.5.wav","4.1.3.wav","2.1.3.wav","0","1","g","1","NA","1662","14275","1662","NA","1889940","1","2","1024","2","48000","-16","experiment","2.1.3.wav","4.1.5.wav","4.1.3.wav","703","odd","2243566","2246026","2245526","2244805","2186227","NA","2242566","2246781","697","NA","NA","2242563","2248444","2229210","2242563","1890639","NA","2242566","699","New experiment","NA","0","0","0","yes","1024"
"undefined","undefined","undefined","undefined","black","no","legacy","0","uniform","undefined","undefined","undefined","57","57","115","57","57","NA","57","57","0","0","0","57","57","0","57","0","NA","57","0","Thu 30 May 2019 11:39:31 AM PDT","500","1000","The main experiment item","yes","NA","ABX_v3.osexp","/home/ubuntu/Desktop/panara","yes","no","mono","no","18","no","white","no","yes","768","3","53","/home/ubuntu/Desktop/panara/subject-703.csv","Jazzy James","3.1.3","3.1.5.wav","3.1.3.wav","1.1.3.wav","0","1","g","1","NA","832","14275","832","NA","1889940","1","2","1024","2","48000","-16","experiment","1.1.3.wav","3.1.5.wav","3.1.3.wav","703","odd","2249612","2252134","2251634","2250884","2186227","NA","2248611","2252947","697","NA","NA","2248608","2253780","2229210","2248608","1890639","NA","2248611","699","New experiment","NA","0","0","0","yes","1024"
"undefined","undefined","undefined","undefined","black","no","legacy","0","uniform","undefined","undefined","undefined","58","58","117","58","58","NA","58","58","0","0","0","58","58","0","58","0","NA","58","0","Thu 30 May 2019 11:39:31 AM PDT","500","1000","The main experiment item","yes","NA","ABX_v3.osexp","/home/ubuntu/Desktop/panara","no","no","mono","no","18","no","white","no","yes","768","4","53","/home/ubuntu/Desktop/panara/subject-703.csv","Jazzy James","3.1.3","4.2.1.wav","3.2.1.wav","3.2.3.wav","0","0","g","0","NA","1257","14275","1257","NA","1889940","1","2","1024","2","48000","-16","experiment","4.2.1.wav","3.2.3.wav","3.2.1.wav","703","odd","2254947","2257425","2256925","2256175","2186227","NA","2253947","2258178","697","NA","NA","2253944","2259435","2229210","2253944","1890639","NA","2253947","699","New experiment","NA","0","0","0","yes","1024"
"undefined","undefined","undefined","undefined","black","no","legacy","0","uniform","undefined","undefined","undefined","59","59","119","59","59","NA","59","59","0","0","0","59","59","0","59","0","NA","59","0","Thu 30 May 2019 11:39:31 AM PDT","500","1000","The main experiment item","yes","NA","ABX_v3.osexp","/home/ubuntu/Desktop/panara","yes","no","mono","no","18","no","white","no","yes","768","5","53","/home/ubuntu/Desktop/panara/subject-703.csv","Jazzy James","3.1.3","3.1.5.wav","3.1.3.wav","4.1.3.wav","0","0","g","0","NA","2822","14275","2822","NA","1889940","1","2","1024","2","48000","-16","experiment","4.1.3.wav","3.1.5.wav","3.1.3.wav","703","odd","2260601","2263142","2262642","2261891","2186227","NA","2259601","2263868","697","NA","NA","2259599","2266691","2229210","2259599","1890639","NA","2259601","699","New experiment","NA","0","0","0","yes","1024"
"undefined","undefined","undefined","undefined","black","no","legacy","0","uniform","undefined","undefined","undefined","60","60","121","60","60","NA","60","60","0","0","0","60","60","0","60","0","NA","60","0","Thu 30 May 2019 11:39:31 AM PDT","500","1000","The main experiment item","yes","NA","ABX_v3.osexp","/home/ubuntu/Desktop/panara","yes","no","mono","no","18","no","white","no","yes","768","6","53","/home/ubuntu/Desktop/panara/subject-703.csv","Jazzy James","3.1.3","4.2.4.wav","4.1.4.wav","4.1.2.wav","0","0","g","0","NA","1664","14275","1664","NA","1889940","1","2","1024","2","48000","-16","experiment","4.1.2.wav","4.2.4.wav","4.1.4.wav","703","odd","2267867","2270323","2269823","2269102","2186227","NA","2266866","2271042","697","NA","NA","2266864","2272707","2229210","2266864","1890639","NA","2266867","699","New experiment","NA","0","0","0","yes","1024"
"undefined","undefined","undefined","undefined","black","no","legacy","0","uniform","undefined","undefined","undefined","61","61","123","61","61","NA","61","61","0","0","0","61","61","0","61","0","NA","61","0","Thu 30 May 2019 11:39:31 AM PDT","500","1000","The main experiment item","yes","NA","ABX_v3.osexp","/home/ubuntu/Desktop/panara","yes","no","mono","no","18","no","white","no","yes","768","7","53","/home/ubuntu/Desktop/panara/subject-703.csv","Jazzy James","3.1.3","1.1.4.wav","1.1.2.wav","3.1.2.wav","0","1","g","1","NA","655","14275","655","NA","1889940","1","2","1024","2","48000","-16","experiment","3.1.2.wav","1.1.4.wav","1.1.2.wav","703","odd","2273870","2276461","2275961","2275150","2186227","NA","2272870","2277244","697","NA","NA","2272867","2277899","2229210","2272867","1890639","NA","2272870","699","New experiment","NA","0","0","0","yes","1024"
"undefined","undefined","undefined","undefined","black","no","legacy","0","uniform","undefined","undefined","undefined","62","62","125","62","62","NA","62","62","0","0","0","62","62","0","62","0","NA","62","0","Thu 30 May 2019 11:39:31 AM PDT","500","1000","The main experiment item","yes","NA","ABX_v3.osexp","/home/ubuntu/Desktop/panara","yes","no","mono","no","18","no","white","no","yes","768","8","53","/home/ubuntu/Desktop/panara/subject-703.csv","Jazzy James","3.1.3","4.1.5.wav","2.1.5.wav","2.1.3.wav","0","1","g","1","NA","3841","14275","3841","NA","1889940","1","2","1024","2","48000","-16","experiment","2.1.3.wav","4.1.5.wav","2.1.5.wav","703","odd","2279060","2281551","2281051","2280300","2186227","NA","2278059","2282304","697","NA","NA","2278057","2286146","2229210","2278057","1890639","NA","2278060","699","New experiment","NA","0","0","0","yes","1024"
"undefined","undefined","undefined","undefined","black","no","legacy","0","uniform","undefined","undefined","undefined","63","63","127","63","63","NA","63","63","0","0","0","63","63","0","63","0","NA","63","0","Thu 30 May 2019 11:39:31 AM PDT","500","1000","The main experiment item","yes","NA","ABX_v3.osexp","/home/ubuntu/Desktop/panara","no","no","mono","no","18","no","white","no","yes","768","9","53","/home/ubuntu/Desktop/panara/subject-703.csv","Jazzy James","3.1.3","3.2.2.wav","1.2.2.wav","1.2.4.wav","0","0","g","0","NA","528","14275","528","NA","1889940","1","2","1024","2","48000","-16","experiment","3.2.2.wav","1.2.4.wav","1.2.2.wav","703","odd","2287332","2289878","2289378","2288599","2186227","NA","2286332","2290625","697","NA","NA","2286329","2291154","2229210","2286329","1890639","NA","2286332","699","New experiment","NA","0","0","0","yes","1024"
"undefined","undefined","undefined","undefined","black","no","legacy","0","uniform","undefined","undefined","undefined","64","64","129","64","64","NA","64","64","0","0","0","64","64","0","64","0","NA","64","0","Thu 30 May 2019 11:39:31 AM PDT","500","1000","The main experiment item","yes","NA","ABX_v3.osexp","/home/ubuntu/Desktop/panara","yes","no","mono","no","18","no","white","no","yes","768","10","53","/home/ubuntu/Desktop/panara/subject-703.csv","Jazzy James","3.1.3","2.1.3.wav","2.1.1.wav","4.1.1.wav","0","1","g","1","NA","554","14275","554","NA","1889940","1","2","1024","2","48000","-16","experiment","4.1.1.wav","2.1.3.wav","2.1.1.wav","703","odd","2292328","2294841","2294341","2293590","2186227","NA","2291328","2295567","697","NA","NA","2291325","2296122","2229210","2291325","1890639","NA","2291328","699","New experiment","NA","0","0","0","yes","1024"
"undefined","undefined","undefined","undefined","black","no","legacy","0","uniform","undefined","undefined","undefined","65","65","131","65","65","NA","65","65","0","0","0","65","65","0","65","0","NA","65","0","Thu 30 May 2019 11:39:31 AM PDT","500","1000","The main experiment item","yes","NA","ABX_v3.osexp","/home/ubuntu/Desktop/panara","yes","no","mono","no","18","no","white","no","yes","768","11","53","/home/ubuntu/Desktop/panara/subject-703.csv","Jazzy James","3.1.3","4.1.3.wav","4.1.1.wav","3.1.1.wav","0","0","g","0","NA","1029","14275","1029","NA","1889940","1","2","1024","2","48000","-16","experiment","3.1.1.wav","4.1.3.wav","4.1.1.wav","703","odd","2297300","2299761","2299261","2298539","2186227","NA","2296299","2300516","697","NA","NA","2296296","2301545","2229210","2296296","1890639","NA","2296300","699","New experiment","NA","0","0","0","yes","1024"
"undefined","undefined","undefined","undefined","black","no","legacy","0","uniform","undefined","undefined","undefined","66","66","133","66","66","NA","66","66","0","0","0","66","66","0","66","0","NA","66","0","Thu 30 May 2019 11:39:31 AM PDT","500","1000","The main experiment item","yes","NA","ABX_v3.osexp","/home/ubuntu/Desktop/panara","no","no","mono","no","18","no","white","no","yes","768","12","53","/home/ubuntu/Desktop/panara/subject-703.csv","Jazzy James","3.1.3","3.1.1.wav","3.1.3.wav","1.1.3.wav","0","1","g","1","NA","824","14275","824","NA","1889940","1","2","1024","2","48000","-16","experiment","3.1.1.wav","1.1.3.wav","3.1.3.wav","703","odd","2302706","2305222","2304722","2303971","2186227","NA","2301706","2306000","697","NA","NA","2301703","2306825","2229210","2301703","1890639","NA","2301706","699","New experiment","NA","0","0","0","yes","1024"
"undefined","undefined","undefined","undefined","black","no","legacy","0","uniform","undefined","undefined","undefined","67","67","135","67","67","NA","67","67","0","0","0","67","67","0","67","0","NA","67","0","Thu 30 May 2019 11:39:31 AM PDT","500","1000","The main experiment item","yes","NA","ABX_v3.osexp","/home/ubuntu/Desktop/panara","yes","no","mono","no","18","no","white","no","yes","768","13","53","/home/ubuntu/Desktop/panara/subject-703.csv","Jazzy James","3.1.3","3.1.3.wav","3.1.1.wav","3.2.1.wav","0","1","g","1","NA","1873","14275","1873","NA","1889940","1","2","1024","2","48000","-16","experiment","3.2.1.wav","3.1.3.wav","3.1.1.wav","703","odd","2307980","2310479","2309979","2309227","2186227","NA","2306979","2311231","697","NA","NA","2306977","2313105","2229210","2306976","1890639","NA","2306980","699","New experiment","NA","0","0","0","yes","1024"
"undefined","undefined","undefined","undefined","black","no","legacy","0","uniform","undefined","undefined","undefined","68","68","137","68","68","NA","68","68","0","0","0","68","68","0","68","0","NA","68","0","Thu 30 May 2019 11:39:31 AM PDT","500","1000","The main experiment item","yes","NA","ABX_v3.osexp","/home/ubuntu/Desktop/panara","yes","no","mono","no","18","no","white","no","yes","768","14","53","/home/ubuntu/Desktop/panara/subject-703.csv","Jazzy James","3.1.3","3.1.3.wav","3.2.3.wav","3.2.1.wav","0","0","g","0","NA","2489","14275","2489","NA","1889940","1","2","1024","2","48000","-16","experiment","3.2.1.wav","3.1.3.wav","3.2.3.wav","703","odd","2314294","2316814","2316313","2315548","2186227","NA","2313294","2317567","697","NA","NA","2313291","2320056","2229210","2313291","1890639","NA","2313294","699","New experiment","NA","0","0","0","yes","1024"
"undefined","undefined","undefined","undefined","black","no","legacy","0","uniform","undefined","undefined","undefined","69","69","139","69","69","NA","69","69","0","0","0","69","69","0","69","0","NA","69","0","Thu 30 May 2019 11:39:31 AM PDT","500","1000","The main experiment item","yes","NA","ABX_v3.osexp","/home/ubuntu/Desktop/panara","no","no","mono","no","18","no","white","no","yes","768","15","53","/home/ubuntu/Desktop/panara/subject-703.csv","Jazzy James","3.1.3","3.1.1.wav","3.1.3.wav","4.1.3.wav","0","1","g","1","NA","1030","14275","1030","NA","1889940","1","2","1024","2","48000","-16","experiment","3.1.1.wav","4.1.3.wav","3.1.3.wav","703","odd","2321224","2323717","2323217","2322468","2186227","NA","2320224","2324473","697","NA","NA","2320222","2325504","2229210","2320222","1890639","NA","2320224","699","New experiment","NA","0","0","0","yes","1024"
"undefined","undefined","undefined","undefined","black","no","legacy","0","uniform","undefined","undefined","undefined","70","70","141","70","70","NA","70","70","0","0","0","70","70","0","70","0","NA","70","0","Thu 30 May 2019 11:39:31 AM PDT","500","1000","The main experiment item","yes","NA","ABX_v3.osexp","/home/ubuntu/Desktop/panara","yes","no","mono","no","18","no","white","no","yes","768","16","53","/home/ubuntu/Desktop/panara/subject-703.csv","Jazzy James","3.1.3","2.2.3.wav","4.2.3.wav","4.2.1.wav","0","0","g","0","NA","886","14275","886","NA","1889940","1","2","1024","2","48000","-16","experiment","4.2.1.wav","2.2.3.wav","4.2.3.wav","703","odd","2326652","2329130","2328630","2327871","2186227","NA","2325652","2329849","697","NA","NA","2325650","2330736","2229210","2325650","1890639","NA","2325652","699","New experiment","NA","0","0","0","yes","1024"
"undefined","undefined","undefined","undefined","black","no","legacy","0","uniform","undefined","undefined","undefined","71","71","143","71","71","NA","71","71","0","0","0","71","71","0","71","0","NA","71","0","Thu 30 May 2019 11:39:31 AM PDT","500","1000","The main experiment item","yes","NA","ABX_v3.osexp","/home/ubuntu/Desktop/panara","yes","no","mono","no","18","no","white","no","yes","768","17","53","/home/ubuntu/Desktop/panara/subject-703.csv","Jazzy James","3.1.3","2.2.5.wav","4.2.5.wav","4.2.3.wav","0","0","g","0","NA","3847","14275","3847","NA","1889940","1","2","1024","2","48000","-16","experiment","4.2.3.wav","2.2.5.wav","4.2.5.wav","703","odd","2331897","2334341","2333841","2333120","2186227","NA","2330896","2335097","697","NA","NA","2330894","2338944","2229210","2330894","1890639","NA","2330897","699","New experiment","NA","0","0","0","yes","1024"
"undefined","undefined","undefined","undefined","black","no","legacy","0","uniform","undefined","undefined","undefined","72","72","145","72","72","NA","72","72","0","0","0","72","72","0","72","0","NA","72","0","Thu 30 May 2019 11:39:31 AM PDT","500","1000","The main experiment item","yes","NA","ABX_v3.osexp","/home/ubuntu/Desktop/panara","no","no","mono","no","18","no","white","no","yes","768","18","53","/home/ubuntu/Desktop/panara/subject-703.csv","Jazzy James","3.1.3","1.2.3.wav","1.1.3.wav","1.1.5.wav","0","1","g","1","NA","4479","14275","4479","NA","1889940","1","2","1024","2","48000","-16","experiment","1.2.3.wav","1.1.5.wav","1.1.3.wav","703","odd","2340130","2342697","2342197","2341419","2186227","NA","2339129","2343480","697","NA","NA","2339127","2347960","2229210","2339126","1890639","NA","2339130","699","New experiment","NA","0","0","0","yes","1024"
"undefined","undefined","undefined","undefined","black","no","legacy","0","uniform","undefined","undefined","undefined","73","73","147","73","73","NA","73","73","0","0","0","73","73","0","73","0","NA","73","0","Thu 30 May 2019 11:39:31 AM PDT","500","1000","The main experiment item","yes","NA","ABX_v3.osexp","/home/ubuntu/Desktop/panara","yes","no","mono","no","18","no","white","no","yes","768","19","53","/home/ubuntu/Desktop/panara/subject-703.csv","Jazzy James","3.1.3","2.2.3.wav","2.2.1.wav","1.2.1.wav","0","1","g","1","NA","3576","14275","3576","NA","1889940","1","2","1024","2","48000","-16","experiment","1.2.1.wav","2.2.3.wav","2.2.1.wav","703","odd","2349124","2351598","2351098","2350376","2186227","NA","2348124","2352375","697","NA","NA","2348121","2355951","2229210","2348121","1890639","NA","2348124","699","New experiment","NA","0","0","0","yes","1024"
"undefined","undefined","undefined","undefined","black","no","legacy","0","uniform","undefined","undefined","undefined","74","74","149","74","74","NA","74","74","0","0","0","74","74","0","74","0","NA","74","0","Thu 30 May 2019 11:39:31 AM PDT","500","1000","The main experiment item","yes","NA","ABX_v3.osexp","/home/ubuntu/Desktop/panara","no","no","mono","no","18","no","white","no","yes","768","20","53","/home/ubuntu/Desktop/panara/subject-703.csv","Jazzy James","3.1.3","1.1.1.wav","1.1.3.wav","2.1.3.wav","0","1","g","1","NA","1383","14275","1383","NA","1889940","1","2","1024","2","48000","-16","experiment","1.1.1.wav","2.1.3.wav","1.1.3.wav","703","odd","2357130","2359678","2359178","2358398","2186227","NA","2356130","2360430","697","NA","NA","2356127","2361814","2229210","2356127","1890639","NA","2356130","699","New experiment","NA","0","0","0","yes","1024"
"undefined","undefined","undefined","undefined","black","no","legacy","0","uniform","undefined","undefined","undefined","75","75","151","75","75","NA","75","75","0","0","0","75","75","0","75","0","NA","75","0","Thu 30 May 2019 11:39:31 AM PDT","500","1000","The main experiment item","yes","NA","ABX_v3.osexp","/home/ubuntu/Desktop/panara","no","no","mono","no","18","no","white","no","yes","768","21","53","/home/ubuntu/Desktop/panara/subject-703.csv","Jazzy James","3.1.3","1.1.2.wav","1.1.4.wav","1.2.4.wav","0","1","g","1","NA","1517","14275","1517","NA","1889940","1","2","1024","2","48000","-16","experiment","1.1.2.wav","1.2.4.wav","1.1.4.wav","703","odd","2362992","2365566","2365066","2364285","2186227","NA","2361992","2366320","697","NA","NA","2361990","2367838","2229210","2361990","1890639","NA","2361992","699","New experiment","NA","0","0","0","yes","1024"
"undefined","undefined","undefined","undefined","black","no","legacy","0","uniform","undefined","undefined","undefined","76","76","153","76","76","NA","76","76","0","0","0","76","76","0","76","0","NA","76","0","Thu 30 May 2019 11:39:31 AM PDT","500","1000","The main experiment item","yes","NA","ABX_v3.osexp","/home/ubuntu/Desktop/panara","no","no","mono","no","18","no","white","no","yes","768","22","53","/home/ubuntu/Desktop/panara/subject-703.csv","Jazzy James","3.1.3","3.2.3.wav","3.2.5.wav","4.2.5.wav","0","1","g","1","NA","1716","14275","1716","NA","1889940","1","2","1024","2","48000","-16","experiment","3.2.3.wav","4.2.5.wav","3.2.5.wav","703","odd","2369019","2371544","2371044","2370285","2186227","NA","2368018","2372282","697","NA","NA","2368016","2373998","2229210","2368016","1890639","NA","2368019","699","New experiment","NA","0","0","0","yes","1024"
"undefined","undefined","undefined","undefined","black","no","legacy","0","uniform","undefined","undefined","undefined","77","77","155","77","77","NA","77","77","0","0","0","77","77","0","77","0","NA","77","0","Thu 30 May 2019 11:39:31 AM PDT","500","1000","The main experiment item","yes","NA","ABX_v3.osexp","/home/ubuntu/Desktop/panara","yes","no","mono","no","18","no","white","no","yes","768","23","53","/home/ubuntu/Desktop/panara/subject-703.csv","Jazzy James","3.1.3","2.1.3.wav","4.1.3.wav","4.1.1.wav","0","0","g","0","NA","1068","14275","1068","NA","1889940","1","2","1024","2","48000","-16","experiment","4.1.1.wav","2.1.3.wav","4.1.3.wav","703","odd","2375172","2377660","2377160","2376417","2186227","NA","2374171","2378384","697","NA","NA","2374169","2379453","2229210","2374169","1890639","NA","2374172","699","New experiment","NA","0","0","0","yes","1024"
"undefined","undefined","undefined","undefined","black","no","legacy","0","uniform","undefined","undefined","undefined","78","78","157","78","78","NA","78","78","0","0","0","78","78","0","78","0","NA","78","0","Thu 30 May 2019 11:39:31 AM PDT","500","1000","The main experiment item","yes","NA","ABX_v3.osexp","/home/ubuntu/Desktop/panara","yes","no","mono","no","18","no","white","no","yes","768","24","53","/home/ubuntu/Desktop/panara/subject-703.csv","Jazzy James","3.1.3","1.2.5.wav","1.2.3.wav","2.2.3.wav","0","1","g","1","NA","933","14275","933","NA","1889940","1","2","1024","2","48000","-16","experiment","2.2.3.wav","1.2.5.wav","1.2.3.wav","703","odd","2380636","2383198","2382698","2381931","2186227","NA","2379635","2383927","697","NA","NA","2379632","2384861","2229210","2379632","1890639","NA","2379636","699","New experiment","NA","0","0","0","yes","1024"
"undefined","undefined","undefined","undefined","black","no","legacy","0","uniform","undefined","undefined","undefined","79","79","159","79","79","NA","79","79","0","0","0","79","79","0","79","0","NA","79","0","Thu 30 May 2019 11:39:31 AM PDT","500","1000","The main experiment item","yes","NA","ABX_v3.osexp","/home/ubuntu/Desktop/panara","yes","no","mono","no","18","no","white","no","yes","768","25","53","/home/ubuntu/Desktop/panara/subject-703.csv","Jazzy James","3.1.3","3.1.3.wav","1.1.3.wav","1.1.1.wav","0","0","g","0","NA","659","14275","659","NA","1889940","1","2","1024","2","48000","-16","experiment","1.1.1.wav","3.1.3.wav","1.1.3.wav","703","odd","2386043","2388603","2388103","2387295","2186227","NA","2385043","2389409","697","NA","NA","2385040","2390069","2229210","2385040","1890639","NA","2385043","699","New experiment","NA","0","0","0","yes","1024"
"undefined","undefined","undefined","undefined","black","no","legacy","0","uniform","undefined","undefined","undefined","80","80","161","80","80","NA","80","80","0","0","0","80","80","0","80","0","NA","80","0","Thu 30 May 2019 11:39:31 AM PDT","500","1000","The main experiment item","yes","NA","ABX_v3.osexp","/home/ubuntu/Desktop/panara","yes","no","mono","no","18","no","white","no","yes","768","26","53","/home/ubuntu/Desktop/panara/subject-703.csv","Jazzy James","3.1.3","1.2.3.wav","2.2.3.wav","2.2.1.wav","0","1","g","1","NA","3382","14275","3382","NA","1889940","1","2","1024","2","48000","-16","experiment","2.2.1.wav","1.2.3.wav","2.2.3.wav","703","odd","2391256","2393777","2393277","2392535","2186227","NA","2390255","2394526","697","NA","NA","2390253","2397909","2229210","2390253","1890639","NA","2390256","699","New experiment","NA","0","0","0","yes","1024"
"undefined","undefined","undefined","undefined","black","no","legacy","0","uniform","undefined","undefined","undefined","81","81","163","81","81","NA","81","81","0","0","0","81","81","0","81","0","NA","81","0","Thu 30 May 2019 11:39:31 AM PDT","500","1000","The main experiment item","yes","NA","ABX_v3.osexp","/home/ubuntu/Desktop/panara","yes","no","mono","no","18","no","white","no","yes","768","27","53","/home/ubuntu/Desktop/panara/subject-703.csv","Jazzy James","3.1.3","3.2.5.wav","3.2.3.wav","1.2.3.wav","0","1","g","1","NA","875","14275","875","NA","1889940","1","2","1024","2","48000","-16","experiment","1.2.3.wav","3.2.5.wav","3.2.3.wav","703","odd","2399091","2401601","2401101","2400364","2186227","NA","2398091","2402384","697","NA","NA","2398088","2403260","2229210","2398088","1890639","NA","2398091","699","New experiment","NA","0","0","0","yes","1024"
"undefined","undefined","undefined","undefined","black","no","legacy","0","uniform","undefined","undefined","undefined","82","82","165","82","82","NA","82","82","0","0","0","82","82","0","82","0","NA","82","0","Thu 30 May 2019 11:39:31 AM PDT","500","1000","The main experiment item","yes","NA","ABX_v3.osexp","/home/ubuntu/Desktop/panara","yes","no","mono","no","18","no","white","no","yes","768","28","53","/home/ubuntu/Desktop/panara/subject-703.csv","Jazzy James","3.1.3","3.1.4.wav","1.1.4.wav","1.1.2.wav","0","0","g","0","NA","1362","14275","1362","NA","1889940","1","2","1024","2","48000","-16","experiment","1.1.2.wav","3.1.4.wav","1.1.4.wav","703","odd","2404428","2406997","2406497","2405718","2186227","NA","2403428","2407777","697","NA","NA","2403426","2409140","2229210","2403426","1890639","NA","2403428","699","New experiment","NA","0","0","0","yes","1024"
"undefined","undefined","undefined","undefined","black","no","legacy","0","uniform","undefined","undefined","undefined","83","83","167","83","83","NA","83","83","0","0","0","83","83","0","83","0","NA","83","0","Thu 30 May 2019 11:39:31 AM PDT","500","1000","The main experiment item","yes","NA","ABX_v3.osexp","/home/ubuntu/Desktop/panara","yes","no","mono","no","18","no","white","no","yes","768","29","53","/home/ubuntu/Desktop/panara/subject-703.csv","Jazzy James","3.1.3","4.1.4.wav","4.2.4.wav","4.2.2.wav","0","1","g","1","NA","1096","14275","1096","NA","1889940","1","2","1024","2","48000","-16","experiment","4.2.2.wav","4.1.4.wav","4.2.4.wav","703","odd","2410280","2412752","2412252","2411535","2186227","NA","2409280","2413475","697","NA","NA","2409278","2414571","2229210","2409278","1890639","NA","2409280","699","New experiment","NA","0","0","0","yes","1024"
"undefined","undefined","undefined","undefined","black","no","legacy","0","uniform","undefined","undefined","undefined","84","84","169","84","84","NA","84","84","0","0","0","84","84","0","84","0","NA","84","0","Thu 30 May 2019 11:39:31 AM PDT","500","1000","The main experiment item","yes","NA","ABX_v3.osexp","/home/ubuntu/Desktop/panara","yes","no","mono","no","18","no","white","no","yes","768","30","53","/home/ubuntu/Desktop/panara/subject-703.csv","Jazzy James","3.1.3","4.1.4.wav","4.1.2.wav","4.2.2.wav","0","1","g","1","NA","3150","14275","3150","NA","1889940","1","2","1024","2","48000","-16","experiment","4.2.2.wav","4.1.4.wav","4.1.2.wav","703","odd","2415759","2418248","2417748","2416995","2186227","NA","2414758","2418996","697","NA","NA","2414756","2422147","2229210","2414756","1890639","NA","2414759","699","New experiment","NA","0","0","0","yes","1024"
"undefined","undefined","undefined","undefined","black","no","legacy","0","uniform","undefined","undefined","undefined","85","85","171","85","85","NA","85","85","0","0","0","85","85","0","85","0","NA","85","0","Thu 30 May 2019 11:39:31 AM PDT","500","1000","The main experiment item","yes","NA","ABX_v3.osexp","/home/ubuntu/Desktop/panara","no","no","mono","no","18","no","white","no","yes","768","31","53","/home/ubuntu/Desktop/panara/subject-703.csv","Jazzy James","3.1.3","2.1.1.wav","4.1.1.wav","4.1.3.wav","0","0","g","0","NA","966","14275","966","NA","1889940","1","2","1024","2","48000","-16","experiment","2.1.1.wav","4.1.3.wav","4.1.1.wav","703","odd","2423337","2425809","2425309","2424585","2186227","NA","2422337","2426532","697","NA","NA","2422334","2427499","2229210","2422334","1890639","NA","2422337","699","New experiment","NA","0","0","0","yes","1024"
"undefined","undefined","undefined","undefined","black","no","legacy","0","uniform","undefined","undefined","undefined","86","86","173","86","86","NA","86","86","0","0","0","86","86","0","86","0","NA","86","0","Thu 30 May 2019 11:39:31 AM PDT","500","1000","The main experiment item","yes","NA","ABX_v3.osexp","/home/ubuntu/Desktop/panara","yes","no","mono","no","18","no","white","no","yes","768","32","53","/home/ubuntu/Desktop/panara/subject-703.csv","Jazzy James","3.1.3","1.2.5.wav","1.1.5.wav","1.1.3.wav","0","0","g","0","NA","3571","14275","3571","NA","1889940","1","2","1024","2","48000","-16","experiment","1.1.3.wav","1.2.5.wav","1.1.5.wav","703","odd","2428664","2431220","2430720","2429938","2186227","NA","2427664","2432030","697","NA","NA","2427662","2435602","2229210","2427662","1890639","NA","2427664","699","New experiment","NA","0","0","0","yes","1024"
"undefined","undefined","undefined","undefined","black","no","legacy","0","uniform","undefined","undefined","undefined","87","87","175","87","87","NA","87","87","0","0","0","87","87","0","87","0","NA","87","0","Thu 30 May 2019 11:39:31 AM PDT","500","1000","The main experiment item","yes","NA","ABX_v3.osexp","/home/ubuntu/Desktop/panara","yes","no","mono","no","18","no","white","no","yes","768","33","53","/home/ubuntu/Desktop/panara/subject-703.csv","Jazzy James","3.1.3","2.1.5.wav","2.1.3.wav","1.1.3.wav","0","0","g","0","NA","674","14275","674","NA","1889940","1","2","1024","2","48000","-16","experiment","1.1.3.wav","2.1.5.wav","2.1.3.wav","703","odd","2436766","2439268","2438768","2438016","2186227","NA","2435766","2440071","697","NA","NA","2435763","2440746","2229210","2435763","1890639","NA","2435766","699","New experiment","NA","0","0","0","yes","1024"
"undefined","undefined","undefined","undefined","black","no","legacy","0","uniform","undefined","undefined","undefined","88","88","177","88","88","NA","88","88","0","0","0","88","88","0","88","0","NA","88","0","Thu 30 May 2019 11:39:31 AM PDT","500","1000","The main experiment item","yes","NA","ABX_v3.osexp","/home/ubuntu/Desktop/panara","no","no","mono","no","18","no","white","no","yes","768","34","53","/home/ubuntu/Desktop/panara/subject-703.csv","Jazzy James","3.1.3","4.1.1.wav","4.2.1.wav","4.2.3.wav","0","1","g","1","NA","762","14275","762","NA","1889940","1","2","1024","2","48000","-16","experiment","4.1.1.wav","4.2.3.wav","4.2.1.wav","703","odd","2441953","2444437","2443937","2443215","2186227","NA","2440952","2445192","697","NA","NA","2440950","2445955","2229210","2440950","1890639","NA","2440953","699","New experiment","NA","0","0","0","yes","1024"
"undefined","undefined","undefined","undefined","black","no","legacy","0","uniform","undefined","undefined","undefined","89","89","179","89","89","NA","89","89","0","0","0","89","89","0","89","0","NA","89","0","Thu 30 May 2019 11:39:31 AM PDT","500","1000","The main experiment item","yes","NA","ABX_v3.osexp","/home/ubuntu/Desktop/panara","yes","no","mono","no","18","no","white","no","yes","768","35","53","/home/ubuntu/Desktop/panara/subject-703.csv","Jazzy James","3.1.3","4.1.3.wav","2.1.3.wav","2.1.1.wav","0","0","g","0","NA","589","14275","589","NA","1889940","1","2","1024","2","48000","-16","experiment","2.1.1.wav","4.1.3.wav","2.1.3.wav","703","odd","2447137","2449635","2449135","2448378","2186227","NA","2446137","2450389","697","NA","NA","2446134","2450978","2229210","2446134","1890639","NA","2446137","699","New experiment","NA","0","0","0","yes","1024"
"undefined","undefined","undefined","undefined","black","no","legacy","0","uniform","undefined","undefined","undefined","90","90","181","90","90","NA","90","90","0","0","0","90","90","0","90","0","NA","90","0","Thu 30 May 2019 11:39:31 AM PDT","500","1000","The main experiment item","yes","NA","ABX_v3.osexp","/home/ubuntu/Desktop/panara","yes","no","mono","no","18","no","white","no","yes","768","36","53","/home/ubuntu/Desktop/panara/subject-703.csv","Jazzy James","3.1.3","3.1.4.wav","3.1.2.wav","3.2.2.wav","0","1","g","1","NA","966","14275","966","NA","1889940","1","2","1024","2","48000","-16","experiment","3.2.2.wav","3.1.4.wav","3.1.2.wav","703","odd","2452145","2454697","2454197","2453418","2186227","NA","2451144","2455458","697","NA","NA","2451142","2456425","2229210","2451142","1890639","NA","2451145","699","New experiment","NA","0","0","0","yes","1024"
"undefined","undefined","undefined","undefined","black","no","legacy","0","uniform","undefined","undefined","undefined","91","91","183","91","91","NA","91","91","0","0","0","91","91","0","91","0","NA","91","0","Thu 30 May 2019 11:39:31 AM PDT","500","1000","The main experiment item","yes","NA","ABX_v3.osexp","/home/ubuntu/Desktop/panara","no","no","mono","no","18","no","white","no","yes","768","37","53","/home/ubuntu/Desktop/panara/subject-703.csv","Jazzy James","3.1.3","2.2.2.wav","2.2.4.wav","2.1.4.wav","0","1","g","1","NA","2749","14275","2749","NA","1889940","1","2","1024","2","48000","-16","experiment","2.2.2.wav","2.1.4.wav","2.2.4.wav","703","odd","2457630","2460073","2459573","2458850","2186227","NA","2456630","2460827","697","NA","NA","2456627","2463577","2229210","2456627","1890639","NA","2456630","699","New experiment","NA","0","0","0","yes","1024"
"undefined","undefined","undefined","undefined","black","no","legacy","0","uniform","undefined","undefined","undefined","92","92","185","92","92","NA","92","92","0","0","0","92","92","0","92","0","NA","92","0","Thu 30 May 2019 11:39:31 AM PDT","500","1000","The main experiment item","yes","NA","ABX_v3.osexp","/home/ubuntu/Desktop/panara","yes","no","mono","no","18","no","white","no","yes","768","38","53","/home/ubuntu/Desktop/panara/subject-703.csv","Jazzy James","3.1.3","4.2.3.wav","4.1.3.wav","4.1.1.wav","0","1","g","1","NA","1989","14275","1989","NA","1889940","1","2","1024","2","48000","-16","experiment","4.1.1.wav","4.2.3.wav","4.1.3.wav","703","odd","2464763","2467241","2466741","2466018","2186227","NA","2463763","2467996","697","NA","NA","2463761","2469985","2229210","2463761","1890639","NA","2463763","699","New experiment","NA","0","0","0","yes","1024"
"undefined","undefined","undefined","undefined","black","no","legacy","0","uniform","undefined","undefined","undefined","93","93","187","93","93","NA","93","93","0","0","0","93","93","0","93","0","NA","93","0","Thu 30 May 2019 11:39:31 AM PDT","500","1000","The main experiment item","yes","NA","ABX_v3.osexp","/home/ubuntu/Desktop/panara","no","no","mono","no","18","no","white","no","yes","768","39","53","/home/ubuntu/Desktop/panara/subject-703.csv","Jazzy James","3.1.3","1.1.3.wav","1.1.5.wav","3.1.5.wav","0","1","g","1","NA","1403","14275","1403","NA","1889940","1","2","1024","2","48000","-16","experiment","1.1.3.wav","3.1.5.wav","1.1.5.wav","703","odd","2471145","2473713","2473213","2472420","2186227","NA","2470145","2474493","697","NA","NA","2470142","2475897","2229210","2470142","1890639","NA","2470145","699","New experiment","NA","0","0","0","yes","1024"
"undefined","undefined","undefined","undefined","black","no","legacy","0","uniform","undefined","undefined","undefined","94","94","189","94","94","NA","94","94","0","0","0","94","94","0","94","0","NA","94","0","Thu 30 May 2019 11:39:31 AM PDT","500","1000","The main experiment item","yes","NA","ABX_v3.osexp","/home/ubuntu/Desktop/panara","yes","no","mono","no","18","no","white","no","yes","768","40","53","/home/ubuntu/Desktop/panara/subject-703.csv","Jazzy James","3.1.3","1.1.4.wav","3.1.4.wav","3.1.2.wav","0","0","g","0","NA","705","14275","705","NA","1889940","1","2","1024","2","48000","-16","experiment","3.1.2.wav","1.1.4.wav","3.1.4.wav","703","odd","2477099","2479656","2479155","2478376","2186227","NA","2476098","2480438","697","NA","NA","2476096","2481144","2229210","2476096","1890639","NA","2476098","699","New experiment","NA","0","0","0","yes","1024"
"undefined","undefined","undefined","undefined","black","no","legacy","0","uniform","undefined","undefined","undefined","95","95","191","95","95","NA","95","95","0","0","0","95","95","0","95","0","NA","95","0","Thu 30 May 2019 11:39:31 AM PDT","500","1000","The main experiment item","yes","NA","ABX_v3.osexp","/home/ubuntu/Desktop/panara","yes","no","mono","no","18","no","white","no","yes","768","41","53","/home/ubuntu/Desktop/panara/subject-703.csv","Jazzy James","3.1.3","4.2.5.wav","4.1.5.wav","4.1.3.wav","0","1","g","1","NA","1156","14275","1156","NA","1889940","1","2","1024","2","48000","-16","experiment","4.1.3.wav","4.2.5.wav","4.1.5.wav","703","odd","2482325","2484790","2484290","2483553","2186227","NA","2481324","2485515","697","NA","NA","2481322","2486671","2229210","2481322","1890639","NA","2481325","699","New experiment","NA","0","0","0","yes","1024"
"undefined","undefined","undefined","undefined","black","no","legacy","0","uniform","undefined","undefined","undefined","96","96","193","96","96","NA","96","96","0","0","0","96","96","0","96","0","NA","96","0","Thu 30 May 2019 11:39:31 AM PDT","500","1000","The main experiment item","yes","NA","ABX_v3.osexp","/home/ubuntu/Desktop/panara","no","no","mono","no","18","no","white","no","yes","768","42","53","/home/ubuntu/Desktop/panara/subject-703.csv","Jazzy James","3.1.3","1.2.1.wav","1.2.3.wav","2.2.3.wav","0","1","g","1","NA","649","14275","649","NA","1889940","1","2","1024","2","48000","-16","experiment","1.2.1.wav","2.2.3.wav","1.2.3.wav","703","odd","2487845","2490386","2489886","2489106","2186227","NA","2486844","2491141","697","NA","NA","2486842","2491791","2229210","2486842","1890639","NA","2486844","699","New experiment","NA","0","0","0","yes","1024"
"undefined","undefined","undefined","undefined","black","no","legacy","0","uniform","undefined","undefined","undefined","97","97","195","97","97","NA","97","97","0","0","0","97","97","0","97","0","NA","97","0","Thu 30 May 2019 11:39:31 AM PDT","500","1000","The main experiment item","yes","NA","ABX_v3.osexp","/home/ubuntu/Desktop/panara","no","no","mono","no","18","no","white","no","yes","768","43","53","/home/ubuntu/Desktop/panara/subject-703.csv","Jazzy James","3.1.3","2.1.2.wav","2.1.4.wav","4.1.4.wav","0","0","g","0","NA","1442","14275","1442","NA","1889940","1","2","1024","2","48000","-16","experiment","2.1.2.wav","4.1.4.wav","2.1.4.wav","703","odd","2492925","2495443","2494943","2494191","2186227","NA","2491925","2496196","697","NA","NA","2491922","2497639","2229210","2491922","1890639","NA","2491925","699","New experiment","NA","0","0","0","yes","1024"
"undefined","undefined","undefined","undefined","black","no","legacy","0","uniform","undefined","undefined","undefined","98","98","197","98","98","NA","98","98","0","0","0","98","98","0","98","0","NA","98","0","Thu 30 May 2019 11:39:31 AM PDT","500","1000","The main experiment item","yes","NA","ABX_v3.osexp","/home/ubuntu/Desktop/panara","yes","no","mono","no","18","no","white","no","yes","768","44","53","/home/ubuntu/Desktop/panara/subject-703.csv","Jazzy James","3.1.3","2.2.5.wav","2.2.3.wav","4.2.3.wav","0","1","g","1","NA","914","14275","914","NA","1889940","1","2","1024","2","48000","-16","experiment","4.2.3.wav","2.2.5.wav","2.2.3.wav","703","odd","2498817","2501265","2500765","2500044","2186227","NA","2497817","2502021","697","NA","NA","2497814","2502936","2229210","2497814","1890639","NA","2497817","699","New experiment","NA","0","0","0","yes","1024"
"undefined","undefined","undefined","undefined","black","no","legacy","0","uniform","undefined","undefined","undefined","99","99","199","99","99","NA","99","99","0","0","0","99","99","0","99","0","NA","99","0","Thu 30 May 2019 11:39:31 AM PDT","500","1000","The main experiment item","yes","NA","ABX_v3.osexp","/home/ubuntu/Desktop/panara","yes","no","mono","no","18","no","white","no","yes","768","45","53","/home/ubuntu/Desktop/panara/subject-703.csv","Jazzy James","3.1.3","1.1.4.wav","1.2.4.wav","1.2.2.wav","0","0","g","0","NA","1137","14275","1137","NA","1889940","1","2","1024","2","48000","-16","experiment","1.2.2.wav","1.1.4.wav","1.2.4.wav","703","odd","2504123","2506662","2506162","2505420","2186227","NA","2503123","2507445","697","NA","NA","2503121","2508582","2229210","2503121","1890639","NA","2503123","699","New experiment","NA","0","0","0","yes","1024"
"undefined","undefined","undefined","undefined","black","no","legacy","0","uniform","undefined","undefined","undefined","100","100","201","100","100","NA","100","100","0","0","0","100","100","0","100","0","NA","100","0","Thu 30 May 2019 11:39:31 AM PDT","500","1000","The main experiment item","yes","NA","ABX_v3.osexp","/home/ubuntu/Desktop/panara","yes","no","mono","no","18","no","white","no","yes","768","46","53","/home/ubuntu/Desktop/panara/subject-703.csv","Jazzy James","3.1.3","2.2.4.wav","2.2.2.wav","1.2.2.wav","0","0","1","0","NA","1204","27359","1204","NA","1889940","1","2","1024","2","48000","-16","experiment","1.2.2.wav","2.2.4.wav","2.2.2.wav","703","odd","2537104","2539593","2539093","2538340","2508741","NA","2536103","2540376","697","NA","NA","2508738","2541581","2229210","2508738","1890639","NA","2536104","699","New experiment","NA","0","0","0","yes","1024"
"undefined","undefined","undefined","undefined","black","no","legacy","0","uniform","undefined","undefined","undefined","101","101","203","101","101","NA","101","101","0","0","0","101","101","0","101","0","NA","101","0","Thu 30 May 2019 11:39:31 AM PDT","500","1000","The main experiment item","yes","NA","ABX_v3.osexp","/home/ubuntu/Desktop/panara","no","no","mono","no","18","no","white","no","yes","768","47","53","/home/ubuntu/Desktop/panara/subject-703.csv","Jazzy James","3.1.3","3.1.3.wav","4.1.3.wav","4.1.5.wav","0","1","1","1","NA","582","27359","582","NA","1889940","1","2","1024","2","48000","-16","experiment","3.1.3.wav","4.1.5.wav","4.1.3.wav","703","odd","2542740","2545210","2544709","2543988","2508741","NA","2541740","2545966","697","NA","NA","2541738","2546548","2229210","2541737","1890639","NA","2541740","699","New experiment","NA","0","0","0","yes","1024"
"undefined","undefined","undefined","undefined","black","no","legacy","0","uniform","undefined","undefined","undefined","102","102","205","102","102","NA","102","102","0","0","0","102","102","0","102","0","NA","102","0","Thu 30 May 2019 11:39:31 AM PDT","500","1000","The main experiment item","yes","NA","ABX_v3.osexp","/home/ubuntu/Desktop/panara","no","no","mono","no","18","no","white","no","yes","768","48","53","/home/ubuntu/Desktop/panara/subject-703.csv","Jazzy James","3.1.3","4.2.2.wav","3.2.2.wav","3.2.4.wav","0","0","1","0","NA","1133","27359","1133","NA","1889940","1","2","1024","2","48000","-16","experiment","4.2.2.wav","3.2.4.wav","3.2.2.wav","703","odd","2547722","2550202","2549702","2548938","2508741","NA","2546721","2550950","697","NA","NA","2546719","2552084","2229210","2546718","1890639","NA","2546722","699","New experiment","NA","0","0","0","yes","1024"
"undefined","undefined","undefined","undefined","black","no","legacy","0","uniform","undefined","undefined","undefined","103","103","207","103","103","NA","103","103","0","0","0","103","103","0","103","0","NA","103","0","Thu 30 May 2019 11:39:31 AM PDT","500","1000","The main experiment item","yes","NA","ABX_v3.osexp","/home/ubuntu/Desktop/panara","no","no","mono","no","18","no","white","no","yes","768","49","53","/home/ubuntu/Desktop/panara/subject-703.csv","Jazzy James","3.1.3","2.1.3.wav","2.1.5.wav","2.2.5.wav","0","0","1","0","NA","646","27359","646","NA","1889940","1","2","1024","2","48000","-16","experiment","2.1.3.wav","2.2.5.wav","2.1.5.wav","703","odd","2553242","2555742","2555242","2554490","2508741","NA","2552242","2556461","697","NA","NA","2552240","2557108","2229210","2552240","1890639","NA","2552242","699","New experiment","NA","0","0","0","yes","1024"
"undefined","undefined","undefined","undefined","black","no","legacy","0","uniform","undefined","undefined","undefined","104","104","209","104","104","NA","104","104","0","0","0","104","104","0","104","0","NA","104","0","Thu 30 May 2019 11:39:31 AM PDT","500","1000","The main experiment item","yes","NA","ABX_v3.osexp","/home/ubuntu/Desktop/panara","yes","no","mono","no","18","no","white","no","yes","768","50","53","/home/ubuntu/Desktop/panara/subject-703.csv","Jazzy James","3.1.3","2.2.3.wav","2.1.3.wav","2.1.1.wav","0","0","1","0","NA","777","27359","777","NA","1889940","1","2","1024","2","48000","-16","experiment","2.1.1.wav","2.2.3.wav","2.1.3.wav","703","odd","2558265","2560768","2560268","2559518","2508741","NA","2557265","2561522","697","NA","NA","2557262","2562299","2229210","2557262","1890639","NA","2557265","699","New experiment","NA","0","0","0","yes","1024"
"undefined","undefined","undefined","undefined","black","no","legacy","0","uniform","undefined","undefined","undefined","105","105","211","105","105","NA","105","105","0","0","0","105","105","0","105","0","NA","105","0","Thu 30 May 2019 11:39:31 AM PDT","500","1000","The main experiment item","yes","NA","ABX_v3.osexp","/home/ubuntu/Desktop/panara","yes","no","mono","no","18","no","white","no","yes","768","51","53","/home/ubuntu/Desktop/panara/subject-703.csv","Jazzy James","3.1.3","3.2.4.wav","3.2.2.wav","1.2.2.wav","0","1","1","1","NA","918","27359","918","NA","1889940","1","2","1024","2","48000","-16","experiment","1.2.2.wav","3.2.4.wav","3.2.2.wav","703","odd","2563451","2565974","2565474","2564693","2508741","NA","2562451","2566756","697","NA","NA","2562448","2567675","2229210","2562448","1890639","NA","2562451","699","New experiment","NA","0","0","0","yes","1024"
"undefined","undefined","undefined","undefined","black","no","legacy","0","uniform","undefined","undefined","undefined","106","106","213","106","106","NA","106","106","0","0","0","106","106","0","106","0","NA","106","0","Thu 30 May 2019 11:39:31 AM PDT","500","1000","The main experiment item","yes","NA","ABX_v3.osexp","/home/ubuntu/Desktop/panara","yes","no","mono","no","18","no","white","no","yes","768","52","53","/home/ubuntu/Desktop/panara/subject-703.csv","Jazzy James","3.1.3","1.1.5.wav","1.2.5.wav","1.2.3.wav","0","1","1","1","NA","957","27359","957","NA","1889940","1","2","1024","2","48000","-16","experiment","1.2.3.wav","1.1.5.wav","1.2.5.wav","703","odd","2568833","2571392","2570892","2570112","2508741","NA","2567833","2572173","697","NA","NA","2567830","2573131","2229210","2567830","1890639","NA","2567833","699","New experiment","NA","0","0","0","yes","1024"
"undefined","undefined","undefined","undefined","black","no","legacy","0","uniform","undefined","undefined","undefined","107","107","215","107","107","NA","107","107","0","0","0","107","107","0","107","0","NA","107","0","Thu 30 May 2019 11:39:31 AM PDT","500","1000","The main experiment item","yes","NA","ABX_v3.osexp","/home/ubuntu/Desktop/panara","no","no","mono","no","18","no","white","no","yes","768","53","53","/home/ubuntu/Desktop/panara/subject-703.csv","Jazzy James","3.1.3","2.2.1.wav","2.1.1.wav","2.1.3.wav","0","0","1","0","NA","853","27359","853","NA","1889940","1","2","1024","2","48000","-16","experiment","2.2.1.wav","2.1.3.wav","2.1.1.wav","703","odd","2574308","2576796","2576296","2575545","2508741","NA","2573307","2577541","697","NA","NA","2573305","2578395","2229210","2573305","1890639","NA","2573308","699","New experiment","NA","0","0","0","yes","1024"
"undefined","undefined","undefined","undefined","black","no","legacy","0","uniform","undefined","undefined","undefined","108","108","217","108","108","NA","108","108","0","0","0","108","108","0","108","0","NA","108","0","Thu 30 May 2019 11:39:31 AM PDT","500","1000","The main experiment item","yes","NA","ABX_v3.osexp","/home/ubuntu/Desktop/panara","no","no","mono","no","18","no","white","no","yes","768","54","53","/home/ubuntu/Desktop/panara/subject-703.csv","Jazzy James","3.1.3","1.2.1.wav","1.2.3.wav","1.1.3.wav","0","1","1","1","NA","710","27359","710","NA","1889940","1","2","1024","2","48000","-16","experiment","1.2.1.wav","1.1.3.wav","1.2.3.wav","703","odd","2579575","2582152","2581652","2580871","2508741","NA","2578574","2582956","697","NA","NA","2578572","2583666","2229210","2578572","1890639","NA","2578575","699","New experiment","NA","0","0","0","yes","1024"
"undefined","undefined","undefined","undefined","black","no","legacy","0","uniform","undefined","undefined","undefined","109","109","219","109","109","NA","109","109","0","0","0","109","109","0","109","0","NA","109","0","Thu 30 May 2019 11:39:31 AM PDT","500","1000","The main experiment item","yes","NA","ABX_v3.osexp","/home/ubuntu/Desktop/panara","yes","no","mono","no","18","no","white","no","yes","768","55","53","/home/ubuntu/Desktop/panara/subject-703.csv","Jazzy James","3.1.3","1.2.4.wav","1.2.2.wav","2.2.2.wav","0","1","1","1","NA","882","27359","882","NA","1889940","1","2","1024","2","48000","-16","experiment","2.2.2.wav","1.2.4.wav","1.2.2.wav","703","odd","2584826","2587350","2586849","2586069","2508741","NA","2583825","2588072","697","NA","NA","2583823","2588955","2229210","2583823","1890639","NA","2583826","699","New experiment","NA","0","0","0","yes","1024"
"undefined","undefined","undefined","undefined","black","no","legacy","0","uniform","undefined","undefined","undefined","110","110","221","110","110","NA","110","110","0","0","0","110","110","0","110","0","NA","110","0","Thu 30 May 2019 11:39:31 AM PDT","500","1000","The main experiment item","yes","NA","ABX_v3.osexp","/home/ubuntu/Desktop/panara","no","no","mono","no","18","no","white","no","yes","768","56","53","/home/ubuntu/Desktop/panara/subject-703.csv","Jazzy James","3.1.3","1.2.3.wav","1.2.5.wav","3.2.5.wav","0","1","1","1","NA","743","27359","743","NA","1889940","1","2","1024","2","48000","-16","experiment","1.2.3.wav","3.2.5.wav","1.2.5.wav","703","odd","2590110","2592666","2592166","2591379","2508741","NA","2589110","2593442","697","NA","NA","2589107","2594186","2229210","2589107","1890639","NA","2589110","699","New experiment","NA","0","0","0","yes","1024"
"undefined","undefined","undefined","undefined","black","no","legacy","0","uniform","undefined","undefined","undefined","111","111","223","111","111","NA","111","111","0","0","0","111","111","0","111","0","NA","111","0","Thu 30 May 2019 11:39:31 AM PDT","500","1000","The main experiment item","yes","NA","ABX_v3.osexp","/home/ubuntu/Desktop/panara","yes","no","mono","no","18","no","white","no","yes","768","57","53","/home/ubuntu/Desktop/panara/subject-703.csv","Jazzy James","3.1.3","1.2.3.wav","3.2.3.wav","3.2.1.wav","0","0","1","0","NA","572","27359","572","NA","1889940","1","2","1024","2","48000","-16","experiment","3.2.1.wav","1.2.3.wav","3.2.3.wav","703","odd","2595367","2597909","2597409","2596657","2508741","NA","2594366","2598661","697","NA","NA","2594363","2599234","2229210","2594363","1890639","NA","2594367","699","New experiment","NA","0","0","0","yes","1024"
"undefined","undefined","undefined","undefined","black","no","legacy","0","uniform","undefined","undefined","undefined","112","112","225","112","112","NA","112","112","0","0","0","112","112","0","112","0","NA","112","0","Thu 30 May 2019 11:39:31 AM PDT","500","1000","The main experiment item","yes","NA","ABX_v3.osexp","/home/ubuntu/Desktop/panara","no","no","mono","no","18","no","white","no","yes","768","58","53","/home/ubuntu/Desktop/panara/subject-703.csv","Jazzy James","3.1.3","3.2.2.wav","3.2.4.wav","1.2.4.wav","0","1","1","1","NA","772","27359","772","NA","1889940","1","2","1024","2","48000","-16","experiment","3.2.2.wav","1.2.4.wav","3.2.4.wav","703","odd","2600389","2602908","2602408","2601662","2508741","NA","2599389","2603669","697","NA","NA","2599386","2604442","2229210","2599386","1890639","NA","2599389","699","New experiment","NA","0","0","0","yes","1024"
